[
  {
    "resourceType": "ExplanationOfBenefit",
    "id": "1",
    "meta": {
      "source": "https://www.icanbwell.com",
      "security": [
        {
          "system": "https://www.icanbwell.com/owner",
          "code": "client"
        }
      ]
    },
    "status": "active",
    "type": {
      "coding": [
        {
          "system": "http://terminology.hl7.org/CodeSystem/claim-type",
          "code": "professional"
        }
      ],
      "text": "Professional"
    },
    "use": "claim",
    "patient": {
      "reference": "Patient/1"
    },
    "billablePeriod": {
      "start": "2019-01-01",
      "end": "2019-10-31"
    },
    "created": "2019-07-02T00:00:00+00:00",
    "insurer": {
      "reference": "Organization/1"
    },
    "provider": {
      "reference": "Organization/1"
    },
    "insurance": [
      {
        "focal": true,
        "coverage": {
          "reference": "Coverage/1"
        }
      }
    ],
    "outcome": "partial",
    "item": [
      {
        "sequence": 1,
        "productOrService": {
          "coding": [
            {
              "system": "http://www.ama-assn.org/go/cpt",
              "code": "97110",
              "display": "Physical Therapy"
            }
          ]
        },
        "servicedDate": "2019-07-02",
        "adjudication": [
          {
            "category": {
              "coding": [
                {
                  "system": "http://hl7.org/fhir/us/carin-bb/CodeSystem/C4BBAdjudication",
                  "code": "submitted"
                }
              ]
            },
            "amount": {
              "value": 1000,
              "currency": "USD"
            }
          }
        ]
      }
    ],
    "total": [
      {
        "category": {
          "coding": [
            {
              "system": "http://hl7.org/fhir/us/carin-bb/CodeSystem/C4BBAdjudication",
              "code": "paidtoprovider"
            }
          ],
          "text": "Payment Amount"
        },
        "amount": {
          "value": 620,
          "currency": "USD"
        }
      }
    ]
  },
  {
    "resourceType": "ExplanationOfBenefit",
    "id": "2",
    "meta": {
      "source": "https://www.icanbwell.com",
      "security": [
        {
          "system": "https://www.icanbwell.com/owner",
          "code": "client"
        }
      ]
    },
    "status": "active",
    "type": {
      "coding": [
        {
          "system": "http://terminology.hl7.org/CodeSystem/claim-type",
          "code": "professional"
        }
      ],
      "text": "Professional"
    },
    "use": "claim",
    "patient": {
      "reference": "Patient/1"
    },
    "billablePeriod": {
      "start": "2019-01-01",
      "end": "2019-10-31"
    },
    "created": "2019-07-02T00:00:00+00:00",
    "insurer": {
      "reference": "Organization/1"
    },
    "provider": {
      "reference": "Practitioner/1"
    },
    "insurance": [
      {
        "focal": true,
        "coverage": {
          "reference": "Coverage/1"
        }
      }
    ],
    "outcome": "partial",
    "item": [
      {
        "sequence": 1,
        "productOrService": {
          "coding": [
            {
              "system": "http://www.ama-assn.org/go/cpt",
              "code": "97110",
              "display": "Physical Therapy"
            }
          ]
        },
        "servicedDate": "2019-07-02",
        "adjudication": [
          {
            "category": {
              "coding": [
                {
                  "system": "http://hl7.org/fhir/us/carin-bb/CodeSystem/C4BBAdjudication",
                  "code": "submitted"
                }
              ]
            },
            "amount": {
              "value": 1000,
              "currency": "USD"
            }
          }
        ]
      }
    ],
    "total": [
      {
        "category": {
          "coding": [
            {
              "system": "http://hl7.org/fhir/us/carin-bb/CodeSystem/C4BBAdjudication",
              "code": "paidtoprovider"
            }
          ],
          "text": "Payment Amount"
        },
        "amount": {
          "value": 620,
          "currency": "USD"
        }
      }
    ]
  },
  {
    "resourceType": "ExplanationOfBenefit",
    "id": "3",
    "meta": {
      "source": "https://www.icanbwell.com",
      "security": [
        {
          "system": "https://www.icanbwell.com/owner",
          "code": "client"
        }
      ]
    },
    "status": "active",
    "type": {
      "coding": [
        {
          "system": "http://terminology.hl7.org/CodeSystem/claim-type",
          "code": "professional"
        }
      ],
      "text": "Professional"
    },
    "use": "claim",
    "patient": {
      "reference": "Patient/1"
    },
    "billablePeriod": {
      "start": "2019-01-01",
      "end": "2019-10-31"
    },
    "created": "2019-07-02T00:00:00+00:00",
    "insurer": {
      "reference": "Organization/1"
    },
    "provider": {
      "reference": "Organization/2"
    },
    "insurance": [
      {
        "focal": true,
        "coverage": {
          "reference": "Coverage/1"
        }
      }
    ],
    "outcome": "partial",
    "item": [
      {
        "sequence": 1,
        "productOrService": {
          "coding": [
            {
              "system": "http://www.ama-assn.org/go/cpt",
              "code": "97110",
              "display": "Physical Therapy"
            }
          ]
        },
        "servicedDate": "2019-07-02",
        "adjudication": [
          {
            "category": {
              "coding": [
                {
                  "system": "http://hl7.org/fhir/us/carin-bb/CodeSystem/C4BBAdjudication",
                  "code": "submitted"
                }
              ]
            },
            "amount": {
              "value": 1000,
              "currency": "USD"
            }
          }
        ]
      }
    ],
    "total": [
      {
        "category": {
          "coding": [
            {
              "system": "http://hl7.org/fhir/us/carin-bb/CodeSystem/C4BBAdjudication",
              "code": "paidtoprovider"
            }
          ],
          "text": "Payment Amount"
        },
        "amount": {
          "value": 620,
          "currency": "USD"
        }
      }
    ]
  }
]
