{
  "entry": [
    {
      "id": "2354-InAgeCohort",
      "resource": {
        "code": {
          "coding": [
            {
              "code": "BMI001",
              "system": "http://www.icanbwell.com/cql/library"
            },
            {
              "code": "1.0.0",
              "system": "http://www.icanbwell.com/cql/libraryVersion"
            },
            {
              "code": "InAgeCohort",
              "system": "http://www.icanbwell.com/cql/rule"
            }
          ]
        },
        "effectivePeriod": {
          "end": "2021-12-31T00:00:00.000Z",
          "start": "2021-01-01T00:00:00.000Z"
        },
        "id": "2354-InAgeCohort",
        "identifier": [
          {
            "system": "https://www.icanbwell.com/sourceId",
            "value": "2354-InAgeCohort"
          },
          {
            "system": "https://www.icanbwell.com/uuid"
          }
        ],
        "issued": "2021-01-01T12:00:00Z",
        "meta": {
          "security": [
            {
              "code": "healthsystem1",
              "system": "https://www.icanbwell.com/owner"
            },
            {
              "code": "healthsystem1",
              "system": "https://www.icanbwell.com/access"
            },
            {
              "code": "B",
              "system": "https://www.icanbwell.com/vendor"
            },
            {
              "code": "B",
              "system": "https://www.icanbwell.com/access"
            },
            {
              "code": "healthsystem1",
              "system": "https://www.icanbwell.com/sourceAssigningAuthority"
            }
          ],
          "source": "/patients",
          "versionId": "1"
        },
        "resourceType": "Observation",
        "status": "final",
        "subject": {
          "reference": "Patient/patient1"
        },
        "valueBoolean": false
      }
    },
    {
      "id": "patient1",
      "resource": {
        "birthDate": "2017-01-01",
        "gender": "female",
        "id": "patient1",
        "identifier": [
          {
            "system": "https://www.icanbwell.com/sourceId",
            "value": "patient1"
          },
          {
            "system": "https://www.icanbwell.com/uuid"
          }
        ],
        "meta": {
          "security": [
            {
              "code": "healthsystem1",
              "system": "https://www.icanbwell.com/access"
            },
            {
              "code": "healthsystem1",
              "system": "https://www.icanbwell.com/owner"
            },
            {
              "code": "healthsystem1",
              "system": "https://www.icanbwell.com/sourceAssigningAuthority"
            }
          ],
          "source": "http://healthsystem1health.org/provider",
          "versionId": "1"
        },
        "name": [
          {
            "family": "PATIENT1",
            "given": [
              "SHYLA"
            ],
            "text": "t",
            "use": "usual"
          }
        ],
        "resourceType": "Patient"
      }
    },
    {
      "id": "person1",
      "resource": {
        "birthDate": "1990-01-01",
        "gender": "male",
        "id": "person1",
        "identifier": [
          {
            "system": "https://www.icanbwell.com/sourceId",
            "value": "person1"
          },
          {
            "system": "https://www.icanbwell.com/uuid"
          }
        ],
        "link": [
          {
            "assurance": "level4",
            "target": {
              "reference": "Patient/patient1",
              "type": "Patient"
            }
          }
        ],
        "meta": {
          "security": [
            {
              "code": "medstar",
              "system": "https://www.icanbwell.com/access"
            },
            {
              "code": "medstar",
              "system": "https://www.icanbwell.com/owner"
            },
            {
              "code": "medstar",
              "system": "https://www.icanbwell.com/sourceAssigningAuthority"
            }
          ],
          "versionId": "1"
        },
        "name": [
          {
            "family": "PATIENT2",
            "given": [
              "OTHER"
            ],
            "text": "t",
            "use": "usual"
          }
        ],
        "resourceType": "Person"
      }
    },
    {
      "id": "person2",
      "resource": {
        "active": true,
        "address": [
          {
            "city": "Austin",
            "country": "Some country",
            "id": "2011-10-05T14:48:00.000Z",
            "line": [
              "301 W, in a yellow submarine"
            ],
            "period": {
              "id": "2011-10-05T14:48:00.000Z"
            },
            "postalCode": "78701",
            "state": "Texas"
          }
        ],
        "gender": "male",
        "id": "person2",
        "identifier": [
          {
            "system": "http://www.walgreens.com/profileid",
            "value": "1000000-a-02"
          },
          {
            "system": "https://www.icanbwell.com/sourceId",
            "value": "person2"
          },
          {
            "system": "https://www.icanbwell.com/uuid"
          }
        ],
        "link": [
          {
            "assurance": "level4",
            "id": "8175a01c-41a3-44f7-9a18-db5077c674fb",
            "target": {
              "reference": "Patient/patient1"
            }
          },
          {
            "assurance": "level4",
            "id": "4223ad68-2cd2-482f-8d47-fc09be3ddbc1",
            "target": {
              "reference": "Patient/patient2"
            }
          }
        ],
        "meta": {
          "id": "ec82e61a-f8b1-43c5-922e-f6e2060da170",
          "security": [
            {
              "code": "bwell",
              "system": "https://www.icanbwell.com/owner"
            },
            {
              "code": "bwell",
              "system": "https://www.icanbwell.com/access"
            },
            {
              "code": "bwell",
              "system": "https://www.icanbwell.com/sourceAssigningAuthority"
            }
          ],
          "source": "https://www.icanbwell.com",
          "versionId": "1"
        },
        "name": [
          {
            "family": "Azamar",
            "given": [
              "Daniel"
            ],
            "use": "nickname"
          }
        ],
        "resourceType": "Person",
        "telecom": [
          {
            "id": "2011-10-05T14:48:00.000Z",
            "system": "phone",
            "use": "home",
            "value": "+52123456789"
          }
        ]
      }
    },
    {
      "id": "personTopLevel",
      "resource": {
        "active": true,
        "address": [
          {
            "city": "Austin",
            "country": "Some country",
            "id": "2011-10-05T14:48:00.000Z",
            "line": [
              "301 W, in a yellow submarine"
            ],
            "period": {
              "id": "2011-10-05T14:48:00.000Z"
            },
            "postalCode": "78701",
            "state": "Texas"
          }
        ],
        "gender": "male",
        "id": "personTopLevel",
        "identifier": [
          {
            "system": "http://www.walgreens.com/profileid",
            "value": "1000000-a-02"
          },
          {
            "system": "https://www.icanbwell.com/sourceId",
            "value": "personTopLevel"
          },
          {
            "system": "https://www.icanbwell.com/uuid"
          }
        ],
        "link": [
          {
            "assurance": "level4",
            "id": "8175a01c-41a3-44f7-9a18-db5077c674fb",
            "target": {
              "reference": "Patient/patient1"
            }
          },
          {
            "assurance": "level4",
            "id": "4223ad68-2cd2-482f-8d47-fc09be3ddbc1",
            "target": {
              "reference": "Person/person1"
            }
          }
        ],
        "meta": {
          "id": "ec82e61a-f8b1-43c5-922e-f6e2060da170",
          "security": [
            {
              "code": "bwell",
              "system": "https://www.icanbwell.com/owner"
            },
            {
              "code": "bwell",
              "system": "https://www.icanbwell.com/access"
            },
            {
              "code": "bwell",
              "system": "https://www.icanbwell.com/sourceAssigningAuthority"
            }
          ],
          "source": "https://www.icanbwell.com",
          "versionId": "1"
        },
        "name": [
          {
            "family": "Azamar",
            "given": [
              "Daniel"
            ],
            "use": "nickname"
          }
        ],
        "resourceType": "Person",
        "telecom": [
          {
            "id": "2011-10-05T14:48:00.000Z",
            "system": "phone",
            "use": "home",
            "value": "+52123456789"
          }
        ]
      }
    }
  ],
  "resourceType": "Bundle",
  "total": 5,
  "type": "searchset"
}
