{
  "entry": [
    {
      "id": "2354-InAgeCohort",
      "resource": {
        "code": {
          "coding": [
            {
              "code": "BMI001",
              "system": "http://www.icanbwell.com/cql/library"
            },
            {
              "code": "1.0.0",
              "system": "http://www.icanbwell.com/cql/libraryVersion"
            },
            {
              "code": "InAgeCohort",
              "system": "http://www.icanbwell.com/cql/rule"
            }
          ]
        },
        "effectivePeriod": {
          "end": "2021-12-31T00:00:00.000Z",
          "start": "2021-01-01T00:00:00.000Z"
        },
        "id": "2354-InAgeCohort",
        "identifier": [
          {
            "id": "sourceId",
            "system": "https://www.icanbwell.com/sourceId",
            "value": "2354-InAgeCohort"
          },
          {
            "id": "uuid",
            "system": "https://www.icanbwell.com/uuid",
            "value": "61886699-c643-5e3b-a074-569e4c43bddf"
          }
        ],
        "issued": "2021-01-01T12:00:00Z",
        "meta": {
          "security": [
            {
              "code": "healthsystem1",
              "system": "https://www.icanbwell.com/owner"
            },
            {
              "code": "healthsystem1",
              "system": "https://www.icanbwell.com/access"
            },
            {
              "code": "B",
              "system": "https://www.icanbwell.com/vendor"
            },
            {
              "code": "B",
              "system": "https://www.icanbwell.com/access"
            },
            {
              "code": "healthsystem1",
              "system": "https://www.icanbwell.com/sourceAssigningAuthority"
            }
          ],
          "source": "/patients",
          "versionId": "1"
        },
        "resourceType": "Observation",
        "status": "final",
        "subject": {
          "extension": [
            {
              "id": "sourceId",
              "url": "https://www.icanbwell.com/sourceId",
              "valueString": "patient1"
            },
            {
              "id": "uuid",
              "url": "https://www.icanbwell.com/uuid",
              "valueString": "24a5930e-11b4-5525-b482-669174917044"
            },
            {
              "id": "sourceAssigningAuthority",
              "url": "https://www.icanbwell.com/sourceAssigningAuthority",
              "valueString": "healthsystem1"
            }
          ],
          "reference": "Patient/patient1"
        },
        "valueBoolean": false
      }
    },
    {
      "id": "patient1",
      "resource": {
        "birthDate": "2017-01-01",
        "gender": "female",
        "id": "patient1",
        "identifier": [
          {
            "id": "sourceId",
            "system": "https://www.icanbwell.com/sourceId",
            "value": "patient1"
          },
          {
            "id": "uuid",
            "system": "https://www.icanbwell.com/uuid",
            "value": "24a5930e-11b4-5525-b482-669174917044"
          }
        ],
        "meta": {
          "security": [
            {
              "code": "healthsystem1",
              "system": "https://www.icanbwell.com/access"
            },
            {
              "code": "healthsystem1",
              "system": "https://www.icanbwell.com/owner"
            },
            {
              "code": "healthsystem1",
              "system": "https://www.icanbwell.com/sourceAssigningAuthority"
            }
          ],
          "source": "http://healthsystem1health.org/provider",
          "versionId": "1"
        },
        "name": [
          {
            "family": "PATIENT1",
            "given": [
              "SHYLA"
            ],
            "text": "t",
            "use": "usual"
          }
        ],
        "resourceType": "Patient"
      }
    },
    {
      "id": "person1",
      "resource": {
        "birthDate": "1990-01-01",
        "gender": "male",
        "id": "person1",
        "identifier": [
          {
            "id": "sourceId",
            "system": "https://www.icanbwell.com/sourceId",
            "value": "person1"
          },
          {
            "id": "uuid",
            "system": "https://www.icanbwell.com/uuid",
            "value": "cb910ded-67db-5c75-b62d-1d1a545c3e56"
          }
        ],
        "link": [
          {
            "assurance": "level4",
            "target": {
              "extension": [
                {
                  "id": "sourceId",
                  "url": "https://www.icanbwell.com/sourceId",
                  "valueString": "patient1"
                },
                {
                  "id": "uuid",
                  "url": "https://www.icanbwell.com/uuid",
                  "valueString": "6b4cd535-4038-5da7-9c1e-43b5a05c793b"
                },
                {
                  "id": "sourceAssigningAuthority",
                  "url": "https://www.icanbwell.com/sourceAssigningAuthority",
                  "valueString": "medstar"
                }
              ],
              "reference": "Patient/patient1",
              "type": "Patient"
            }
          }
        ],
        "meta": {
          "security": [
            {
              "code": "medstar",
              "system": "https://www.icanbwell.com/access"
            },
            {
              "code": "medstar",
              "system": "https://www.icanbwell.com/owner"
            },
            {
              "code": "medstar",
              "system": "https://www.icanbwell.com/sourceAssigningAuthority"
            }
          ],
          "versionId": "1"
        },
        "name": [
          {
            "family": "PATIENT2",
            "given": [
              "OTHER"
            ],
            "text": "t",
            "use": "usual"
          }
        ],
        "resourceType": "Person"
      }
    },
    {
      "id": "person2",
      "resource": {
        "active": true,
        "address": [
          {
            "city": "Austin",
            "country": "Some country",
            "id": "2011-10-05T14:48:00.000Z",
            "line": [
              "301 W, in a yellow submarine"
            ],
            "period": {
              "id": "2011-10-05T14:48:00.000Z"
            },
            "postalCode": "78701",
            "state": "Texas"
          }
        ],
        "gender": "male",
        "id": "person2",
        "identifier": [
          {
            "system": "http://www.walgreens.com/profileid",
            "value": "1000000-a-02"
          },
          {
            "id": "sourceId",
            "system": "https://www.icanbwell.com/sourceId",
            "value": "person2"
          },
          {
            "id": "uuid",
            "system": "https://www.icanbwell.com/uuid",
            "value": "0eb80391-0f61-5ce6-b221-a5428f2f38a7"
          }
        ],
        "link": [
          {
            "assurance": "level4",
            "id": "8175a01c-41a3-44f7-9a18-db5077c674fb",
            "target": {
              "extension": [
                {
                  "id": "sourceId",
                  "url": "https://www.icanbwell.com/sourceId",
                  "valueString": "patient1"
                },
                {
                  "id": "uuid",
                  "url": "https://www.icanbwell.com/uuid",
                  "valueString": "b1b84ea6-c8e3-52d8-9759-ebe994c1e89d"
                },
                {
                  "id": "sourceAssigningAuthority",
                  "url": "https://www.icanbwell.com/sourceAssigningAuthority",
                  "valueString": "bwell"
                }
              ],
              "reference": "Patient/patient1"
            }
          },
          {
            "assurance": "level4",
            "id": "4223ad68-2cd2-482f-8d47-fc09be3ddbc1",
            "target": {
              "extension": [
                {
                  "id": "sourceId",
                  "url": "https://www.icanbwell.com/sourceId",
                  "valueString": "patient2"
                },
                {
                  "id": "uuid",
                  "url": "https://www.icanbwell.com/uuid",
                  "valueString": "90d14c10-b08a-5977-8aaf-4252355ac169"
                },
                {
                  "id": "sourceAssigningAuthority",
                  "url": "https://www.icanbwell.com/sourceAssigningAuthority",
                  "valueString": "bwell"
                }
              ],
              "reference": "Patient/patient2"
            }
          }
        ],
        "meta": {
          "id": "ec82e61a-f8b1-43c5-922e-f6e2060da170",
          "security": [
            {
              "code": "bwell",
              "system": "https://www.icanbwell.com/owner"
            },
            {
              "code": "bwell",
              "system": "https://www.icanbwell.com/access"
            },
            {
              "code": "bwell",
              "system": "https://www.icanbwell.com/sourceAssigningAuthority"
            }
          ],
          "source": "https://www.icanbwell.com",
          "versionId": "1"
        },
        "name": [
          {
            "family": "Azamar",
            "given": [
              "Daniel"
            ],
            "use": "nickname"
          }
        ],
        "resourceType": "Person",
        "telecom": [
          {
            "id": "2011-10-05T14:48:00.000Z",
            "system": "phone",
            "use": "home",
            "value": "+52123456789"
          }
        ]
      }
    },
    {
      "id": "personTopLevel",
      "resource": {
        "active": true,
        "address": [
          {
            "city": "Austin",
            "country": "Some country",
            "id": "2011-10-05T14:48:00.000Z",
            "line": [
              "301 W, in a yellow submarine"
            ],
            "period": {
              "id": "2011-10-05T14:48:00.000Z"
            },
            "postalCode": "78701",
            "state": "Texas"
          }
        ],
        "gender": "male",
        "id": "personTopLevel",
        "identifier": [
          {
            "system": "http://www.walgreens.com/profileid",
            "value": "1000000-a-02"
          },
          {
            "id": "sourceId",
            "system": "https://www.icanbwell.com/sourceId",
            "value": "personTopLevel"
          },
          {
            "id": "uuid",
            "system": "https://www.icanbwell.com/uuid",
            "value": "9168d18f-8ad4-5f07-8ace-dd2979455b4e"
          }
        ],
        "link": [
          {
            "assurance": "level4",
            "id": "8175a01c-41a3-44f7-9a18-db5077c674fb",
            "target": {
              "extension": [
                {
                  "id": "sourceId",
                  "url": "https://www.icanbwell.com/sourceId",
                  "valueString": "patient1"
                },
                {
                  "id": "uuid",
                  "url": "https://www.icanbwell.com/uuid",
                  "valueString": "b1b84ea6-c8e3-52d8-9759-ebe994c1e89d"
                },
                {
                  "id": "sourceAssigningAuthority",
                  "url": "https://www.icanbwell.com/sourceAssigningAuthority",
                  "valueString": "bwell"
                }
              ],
              "reference": "Patient/patient1"
            }
          },
          {
            "assurance": "level4",
            "id": "4223ad68-2cd2-482f-8d47-fc09be3ddbc1",
            "target": {
              "extension": [
                {
                  "id": "sourceId",
                  "url": "https://www.icanbwell.com/sourceId",
                  "valueString": "person1"
                },
                {
                  "id": "uuid",
                  "url": "https://www.icanbwell.com/uuid",
                  "valueString": "0b2ad38a-20bc-5cf5-9739-13f242b05892"
                },
                {
                  "id": "sourceAssigningAuthority",
                  "url": "https://www.icanbwell.com/sourceAssigningAuthority",
                  "valueString": "bwell"
                }
              ],
              "reference": "Person/person1"
            }
          }
        ],
        "meta": {
          "id": "ec82e61a-f8b1-43c5-922e-f6e2060da170",
          "security": [
            {
              "code": "bwell",
              "system": "https://www.icanbwell.com/owner"
            },
            {
              "code": "bwell",
              "system": "https://www.icanbwell.com/access"
            },
            {
              "code": "bwell",
              "system": "https://www.icanbwell.com/sourceAssigningAuthority"
            }
          ],
          "source": "https://www.icanbwell.com",
          "versionId": "1"
        },
        "name": [
          {
            "family": "Azamar",
            "given": [
              "Daniel"
            ],
            "use": "nickname"
          }
        ],
        "resourceType": "Person",
        "telecom": [
          {
            "id": "2011-10-05T14:48:00.000Z",
            "system": "phone",
            "use": "home",
            "value": "+52123456789"
          }
        ]
      }
    }
  ],
  "resourceType": "Bundle",
  "total": 5,
  "type": "searchset"
}
