{
  "entry": [
    {
      "id": "1679033641",
      "resource": {
        "active": true,
        "communication": [
          {
            "coding": [
              {
                "code": "en",
                "system": "urn:ietf:bcp:47"
              }
            ]
          }
        ],
        "contained": [
          {
            "id": "123456",
            "identifier": [
              {
                "id": "sourceId",
                "system": "https://www.icanbwell.com/sourceId",
                "value": "123456"
              },
              {
                "id": "uuid",
                "system": "https://www.icanbwell.com/uuid",
                "value": "5a4babca-75df-54d3-bbaf-30242cf0cb08"
              }
            ],
            "meta": {
              "security": [
                {
                  "code": "client",
                  "system": "https://www.icanbwell.com/access"
                },
                {
                  "code": "client",
                  "system": "https://www.icanbwell.com/owner"
                },
                {
                  "code": "client",
                  "system": "https://www.icanbwell.com/sourceAssigningAuthority"
                }
              ],
              "source": "client",
              "versionId": "1"
            },
            "name": "Client Medical Group",
            "resourceType": "Organization",
            "type": [
              {
                "coding": [
                  {
                    "code": "prov",
                    "display": "Healthcare Provider",
                    "system": "http://terminology.hl7.org/CodeSystem/organization-type"
                  }
                ],
                "text": "Healthcare Organization"
              }
            ]
          },
          {
            "active": true,
            "code": [
              {
                "coding": [
                  {
                    "code": "doctor",
                    "display": "Doctor",
                    "system": "http://terminology.hl7.org/CodeSystem/practitioner-role"
                  }
                ],
                "text": "Doctor"
              }
            ],
            "extension": [
              {
                "extension": [
                  {
                    "id": "acceptingpatients",
                    "url": "acceptingPatients",
                    "valueCodeableConcept": {
                      "coding": [
                        {
                          "code": "existptonly",
                          "system": "https://build.fhir.org/ig/HL7/davinci-pdex-plan-net/CodeSystem-AcceptingPatientsCS.html"
                        }
                      ]
                    }
                  },
                  {
                    "id": "agerange",
                    "url": "ageRange",
                    "valueRange": {
                      "high": {
                        "unit": "years"
                      },
                      "low": {
                        "unit": "years",
                        "value": 0
                      }
                    }
                  }
                ],
                "id": "new-patients-1",
                "url": "http://hl7.org/fhir/us/davinci-pdex-plan-net/StructureDefinition/newpatients"
              }
            ],
            "id": "1881603751",
            "identifier": [
              {
                "id": "sourceId",
                "system": "https://www.icanbwell.com/sourceId",
                "value": "1881603751"
              },
              {
                "id": "uuid",
                "system": "https://www.icanbwell.com/uuid",
                "value": "9a3a6107-1427-584c-b317-8dababd866d7"
              }
            ],
            "location": [
              {
                "extension": [
                  {
                    "id": "sourceId",
                    "url": "https://www.icanbwell.com/sourceId",
                    "valueString": "Location/Client-Alias-ABC"
                  },
                  {
                    "id": "uuid",
                    "url": "https://www.icanbwell.com/uuid",
                    "valueString": "Location/3367835b-be52-5c98-9dc0-cfb62c2b6481"
                  },
                  {
                    "id": "sourceAssigningAuthority",
                    "url": "https://www.icanbwell.com/sourceAssigningAuthority",
                    "valueString": "client"
                  }
                ],
                "reference": "Location/Client-Alias-ABC"
              }
            ],
            "meta": {
              "security": [
                {
                  "code": "client",
                  "system": "https://www.icanbwell.com/access"
                },
                {
                  "code": "client",
                  "system": "https://www.icanbwell.com/owner"
                },
                {
                  "code": "client",
                  "system": "https://www.icanbwell.com/sourceAssigningAuthority"
                }
              ],
              "source": "http://clienthealth.org/provider",
              "versionId": "1"
            },
            "organization": {
              "extension": [
                {
                  "id": "sourceId",
                  "url": "https://www.icanbwell.com/sourceId",
                  "valueString": "Organization/Client-Alias-ABC"
                },
                {
                  "id": "uuid",
                  "url": "https://www.icanbwell.com/uuid",
                  "valueString": "Organization/3367835b-be52-5c98-9dc0-cfb62c2b6481"
                },
                {
                  "id": "sourceAssigningAuthority",
                  "url": "https://www.icanbwell.com/sourceAssigningAuthority",
                  "valueString": "client"
                }
              ],
              "reference": "Organization/Client-Alias-ABC"
            },
            "practitioner": {
              "extension": [
                {
                  "id": "sourceId",
                  "url": "https://www.icanbwell.com/sourceId",
                  "valueString": "Practitioner/1679033641"
                },
                {
                  "id": "uuid",
                  "url": "https://www.icanbwell.com/uuid",
                  "valueString": "Practitioner/aa8a8ff8-af25-5878-8cf3-bc74227d44dd"
                },
                {
                  "id": "sourceAssigningAuthority",
                  "url": "https://www.icanbwell.com/sourceAssigningAuthority",
                  "valueString": "client"
                }
              ],
              "reference": "Practitioner/1679033641"
            },
            "resourceType": "PractitionerRole"
          }
        ],
        "gender": "unknown",
        "id": "1679033641",
        "identifier": [
          {
            "system": "http://clienthealth.org",
            "type": {
              "coding": [
                {
                  "code": "PRN",
                  "system": "http://terminology.hl7.org/CodeSystem/v2-0203"
                }
              ]
            },
            "use": "usual",
            "value": "4657"
          },
          {
            "system": "http://hl7.org/fhir/sid/us-npi",
            "type": {
              "coding": [
                {
                  "code": "NPI",
                  "system": "http://terminology.hl7.org/CodeSystem/v2-0203"
                }
              ]
            },
            "use": "official",
            "value": "1679033641"
          },
          {
            "id": "sourceId",
            "system": "https://www.icanbwell.com/sourceId",
            "value": "1679033641"
          },
          {
            "id": "uuid",
            "system": "https://www.icanbwell.com/uuid",
            "value": "aa8a8ff8-af25-5878-8cf3-bc74227d44dd"
          }
        ],
        "meta": {
          "security": [
            {
              "code": "client",
              "system": "https://www.icanbwell.com/access"
            },
            {
              "code": "client",
              "system": "https://www.icanbwell.com/owner"
            },
            {
              "code": "client",
              "system": "https://www.icanbwell.com/sourceAssigningAuthority"
            }
          ],
          "source": "client",
          "versionId": "1"
        },
        "name": [
          {
            "family": "NAJJAR  MD",
            "given": [
              "SAMER S."
            ],
            "text": "SAMER S. NAJJAR  MD",
            "use": "usual"
          }
        ],
        "qualification": [
          {
            "code": {
              "coding": [
                {
                  "code": "MD",
                  "system": "http://terminology.hl7.org/ValueSet/v2-2.7-030"
                }
              ]
            },
            "issuer": {
              "extension": [
                {
                  "id": "sourceId",
                  "url": "https://www.icanbwell.com/sourceId",
                  "valueString": "Organization/123456"
                },
                {
                  "id": "uuid",
                  "url": "https://www.icanbwell.com/uuid",
                  "valueString": "Organization/5a4babca-75df-54d3-bbaf-30242cf0cb08"
                },
                {
                  "id": "sourceAssigningAuthority",
                  "url": "https://www.icanbwell.com/sourceAssigningAuthority",
                  "valueString": "client"
                }
              ],
              "reference": "Organization/123456"
            }
          },
          {
            "code": {
              "coding": [
                {
                  "code": "MD",
                  "system": "http://terminology.hl7.org/ValueSet/v2-2.7-030"
                }
              ]
            },
            "issuer": {
              "extension": [
                {
                  "id": "sourceId",
                  "url": "https://www.icanbwell.com/sourceId",
                  "valueString": "Organization/123456"
                },
                {
                  "id": "uuid",
                  "url": "https://www.icanbwell.com/uuid",
                  "valueString": "Organization/5a4babca-75df-54d3-bbaf-30242cf0cb08"
                },
                {
                  "id": "sourceAssigningAuthority",
                  "url": "https://www.icanbwell.com/sourceAssigningAuthority",
                  "valueString": "client"
                }
              ],
              "reference": "Organization/123456"
            },
            "period": {
              "end": "2021-12-11T00:00:00.000Z",
              "start": "1960-01-01T00:00:00.000Z"
            }
          },
          {
            "code": {
              "coding": [
                {
                  "code": "MD",
                  "system": "http://terminology.hl7.org/ValueSet/v2-2.7-030"
                }
              ]
            },
            "issuer": {
              "display": "the person who issued it"
            }
          }
        ],
        "resourceType": "Practitioner",
        "telecom": [
          {
            "system": "email",
            "use": "work",
            "value": "foo@foo.com"
          }
        ]
      }
    }
  ],
  "resourceType": "Bundle",
  "total": 1,
  "type": "searchset"
}
