{
  "entry": [
    {
      "id": "1275501447",
      "resource": {
        "active": true,
        "communication": [
          {
            "coding": [
              {
                "code": "en",
                "display": "English",
                "system": "urn:ietf:bcp:47"
              }
            ]
          }
        ],
        "gender": "male",
        "id": "1275501447",
        "identifier": [
          {
            "system": "http://hl7.org/fhir/sid/us-tin",
            "type": {
              "coding": [
                {
                  "code": "TAX",
                  "system": "http://terminology.hl7.org/CodeSystem/v2-0203"
                }
              ]
            },
            "use": "official",
            "value": "46-1322238"
          },
          {
            "system": "http://medstarhealth.org",
            "type": {
              "coding": [
                {
                  "code": "PRN",
                  "system": "http://terminology.hl7.org/CodeSystem/v2-0203"
                }
              ]
            },
            "use": "usual",
            "value": "500136"
          },
          {
            "system": "http://hl7.org/fhir/sid/us-npi",
            "type": {
              "coding": [
                {
                  "code": "NPI",
                  "system": "http://terminology.hl7.org/CodeSystem/v2-0203"
                }
              ]
            },
            "use": "official",
            "value": "1275501447"
          },
          {
            "id": "sourceId",
            "system": "https://www.icanbwell.com/sourceId",
            "value": "1275501447"
          },
          {
            "id": "uuid",
            "system": "https://www.icanbwell.com/uuid",
            "value": "f0d39fd9-7c7f-5f57-8579-05da5fa4615e"
          }
        ],
        "meta": {
          "security": [
            {
              "code": "medstar",
              "system": "https://www.icanbwell.com/access"
            },
            {
              "code": "medstar",
              "system": "https://www.icanbwell.com/owner"
            },
            {
              "code": "medstar",
              "system": "https://www.icanbwell.com/sourceAssigningAuthority"
            }
          ],
          "source": "http://medstarhealth.org/provider_headshots",
          "versionId": "1"
        },
        "name": [
          {
            "family": "Cool",
            "given": [
              "JEFFREY",
              "A"
            ],
            "text": "JEFFREY COOL MD",
            "use": "usual"
          }
        ],
        "photo": [
          {
            "contentType": "image/jpg",
            "title": "Practitioner headshot: Jeffrey Cool - 1275501447",
            "url": "https://uep.medstarhealth.org/content/uploads/profile_images/Jeffrey-Cool-MPP_jpg.jpg"
          }
        ],
        "qualification": [
          {
            "code": {
              "coding": [
                {
                  "code": "MD",
                  "system": "http://terminology.hl7.org/ValueSet/v2-2.7-030"
                }
              ]
            }
          },
          {
            "code": {
              "coding": [
                {
                  "code": "MD",
                  "system": "http://terminology.hl7.org/ValueSet/v2-2.7-030"
                }
              ]
            },
            "issuer": {
              "display": "MedStar Union Memorial Hospital",
              "extension": [
                {
                  "id": "sourceId",
                  "url": "https://www.icanbwell.com/sourceId",
                  "valueString": "Organization/MedStar-Union-Memorial-Hospital"
                },
                {
                  "id": "uuid",
                  "url": "https://www.icanbwell.com/uuid",
                  "valueString": "Organization/51621560-6e26-5a22-8ad2-fe3b9e356ec2"
                },
                {
                  "id": "sourceAssigningAuthority",
                  "url": "https://www.icanbwell.com/sourceAssigningAuthority",
                  "valueString": "medstar"
                }
              ],
              "reference": "Organization/MedStar-Union-Memorial-Hospital"
            },
            "period": {
              "end": "2099-12-31T00:00:00.000Z",
              "start": "1987-01-01T00:00:00.000Z"
            }
          }
        ],
        "resourceType": "Practitioner",
        "telecom": [
          {
            "system": "email",
            "use": "work",
            "value": "jeffrey.cool@direct.medstar.net"
          }
        ]
      }
    },
    {
      "id": "1275501447-UHG-MMMA",
      "resource": {
        "actor": [
          {
            "extension": [
              {
                "id": "sourceId",
                "url": "https://www.icanbwell.com/sourceId",
                "valueString": "PractitionerRole/1275501447-UHG-MMMA"
              },
              {
                "id": "uuid",
                "url": "https://www.icanbwell.com/uuid",
                "valueString": "PractitionerRole/6f7f58d5-4ce9-58ed-92b5-9900db8181ee"
              },
              {
                "id": "sourceAssigningAuthority",
                "url": "https://www.icanbwell.com/sourceAssigningAuthority",
                "valueString": "medstar"
              }
            ],
            "reference": "PractitionerRole/1275501447-UHG-MMMA"
          }
        ],
        "id": "1275501447-UHG-MMMA",
        "identifier": [
          {
            "id": "sourceId",
            "system": "https://www.icanbwell.com/sourceId",
            "value": "1275501447-UHG-MMMA"
          },
          {
            "id": "uuid",
            "system": "https://www.icanbwell.com/uuid",
            "value": "6f7f58d5-4ce9-58ed-92b5-9900db8181ee"
          }
        ],
        "meta": {
          "security": [
            {
              "code": "medstar",
              "system": "https://www.icanbwell.com/access"
            },
            {
              "code": "medstar",
              "system": "https://www.icanbwell.com/owner"
            },
            {
              "code": "medstar",
              "system": "https://www.icanbwell.com/sourceAssigningAuthority"
            }
          ],
          "source": "http://medstarhealth.org/provider_appointment_type",
          "versionId": "1"
        },
        "resourceType": "Schedule",
        "serviceType": [
          {
            "coding": [
              {
                "code": "LNG",
                "display": "LNG",
                "system": "http://medstarhealth.org/appointment-type"
              }
            ],
            "text": "Medstar Appointment Type"
          },
          {
            "coding": [
              {
                "code": "EV4",
                "display": "EV4",
                "system": "http://medstarhealth.org/appointment-type"
              }
            ],
            "text": "Medstar Appointment Type"
          },
          {
            "coding": [
              {
                "code": "SHT",
                "display": "SHT",
                "system": "http://medstarhealth.org/appointment-type"
              }
            ],
            "text": "Medstar Appointment Type"
          },
          {
            "coding": [
              {
                "code": "ERN",
                "display": "ERN",
                "system": "http://medstarhealth.org/appointment-type"
              }
            ],
            "text": "Medstar Appointment Type"
          },
          {
            "coding": [
              {
                "code": "PHN",
                "display": "PHN",
                "system": "http://medstarhealth.org/appointment-type"
              }
            ],
            "text": "Medstar Appointment Type"
          },
          {
            "coding": [
              {
                "code": "PrimaryCare",
                "display": "PrimaryCare",
                "system": "http://medstarhealth.org/protocol"
              }
            ],
            "text": "Medstar Protocol Departments"
          }
        ]
      }
    },
    {
      "id": "1275501447-UHG-MMMA",
      "resource": {
        "code": [
          {
            "coding": [
              {
                "code": "doctor",
                "system": "http://terminology.hl7.org/CodeSystem/practitioner-role"
              }
            ]
          },
          {
            "coding": [
              {
                "code": "doctor",
                "display": "Doctor",
                "system": "http://terminology.hl7.org/CodeSystem/practitioner-role"
              }
            ],
            "text": "Doctor"
          }
        ],
        "healthcareService": [
          {
            "extension": [
              {
                "id": "sourceId",
                "url": "https://www.icanbwell.com/sourceId",
                "valueString": "HealthcareService/1275501447-UHG-MMMA"
              },
              {
                "id": "uuid",
                "url": "https://www.icanbwell.com/uuid",
                "valueString": "HealthcareService/6f7f58d5-4ce9-58ed-92b5-9900db8181ee"
              },
              {
                "id": "sourceAssigningAuthority",
                "url": "https://www.icanbwell.com/sourceAssigningAuthority",
                "valueString": "medstar"
              }
            ],
            "reference": "HealthcareService/1275501447-UHG-MMMA"
          }
        ],
        "id": "1275501447-UHG-MMMA",
        "identifier": [
          {
            "system": "http://medstarhealth.org",
            "type": {
              "coding": [
                {
                  "code": "Medstar Provider-Protocol",
                  "display": "Medstar Provider-Protocol",
                  "system": "http://medstarhealth.org"
                }
              ]
            },
            "use": "usual",
            "value": "1275501447-UHG-MMMA"
          },
          {
            "id": "sourceId",
            "system": "https://www.icanbwell.com/sourceId",
            "value": "1275501447-UHG-MMMA"
          },
          {
            "id": "uuid",
            "system": "https://www.icanbwell.com/uuid",
            "value": "6f7f58d5-4ce9-58ed-92b5-9900db8181ee"
          }
        ],
        "location": [
          {
            "extension": [
              {
                "id": "sourceId",
                "url": "https://www.icanbwell.com/sourceId",
                "valueString": "Location/Medstar-Alias-UHG-MMMA"
              },
              {
                "id": "uuid",
                "url": "https://www.icanbwell.com/uuid",
                "valueString": "Location/4d0c1af3-40e8-582a-a6c5-0433400c884e"
              },
              {
                "id": "sourceAssigningAuthority",
                "url": "https://www.icanbwell.com/sourceAssigningAuthority",
                "valueString": "medstar"
              }
            ],
            "reference": "Location/Medstar-Alias-UHG-MMMA"
          }
        ],
        "meta": {
          "security": [
            {
              "code": "medstar",
              "system": "https://www.icanbwell.com/access"
            },
            {
              "code": "medstar",
              "system": "https://www.icanbwell.com/owner"
            },
            {
              "code": "medstar",
              "system": "https://www.icanbwell.com/sourceAssigningAuthority"
            }
          ],
          "source": "http://medstarhealth.org/provider",
          "versionId": "1"
        },
        "organization": {
          "extension": [
            {
              "id": "sourceId",
              "url": "https://www.icanbwell.com/sourceId",
              "valueString": "Organization/Medstar-Alias-UHG-MMMA"
            },
            {
              "id": "uuid",
              "url": "https://www.icanbwell.com/uuid",
              "valueString": "Organization/4d0c1af3-40e8-582a-a6c5-0433400c884e"
            },
            {
              "id": "sourceAssigningAuthority",
              "url": "https://www.icanbwell.com/sourceAssigningAuthority",
              "valueString": "medstar"
            }
          ],
          "reference": "Organization/Medstar-Alias-UHG-MMMA"
        },
        "practitioner": {
          "extension": [
            {
              "id": "sourceId",
              "url": "https://www.icanbwell.com/sourceId",
              "valueString": "Practitioner/1275501447"
            },
            {
              "id": "uuid",
              "url": "https://www.icanbwell.com/uuid",
              "valueString": "Practitioner/f0d39fd9-7c7f-5f57-8579-05da5fa4615e"
            },
            {
              "id": "sourceAssigningAuthority",
              "url": "https://www.icanbwell.com/sourceAssigningAuthority",
              "valueString": "medstar"
            }
          ],
          "reference": "Practitioner/1275501447"
        },
        "resourceType": "PractitionerRole",
        "specialty": [
          {
            "coding": [
              {
                "code": "261QP2300X",
                "display": "Primary Care",
                "system": "http://nucc.org/provider-taxonomy"
              }
            ],
            "text": "Primary Care Flag"
          }
        ]
      }
    },
    {
      "id": "1275501447-UHG-MMMA-existing",
      "resource": {
        "end": "2021-11-04T14:00:00.000+08:00",
        "id": "1275501447-UHG-MMMA-existing",
        "identifier": [
          {
            "id": "sourceId",
            "system": "https://www.icanbwell.com/sourceId",
            "value": "1275501447-UHG-MMMA-existing"
          },
          {
            "id": "uuid",
            "system": "https://www.icanbwell.com/uuid",
            "value": "be692c4f-8fb0-5e24-8703-75a71a7e7387"
          }
        ],
        "meta": {
          "source": "medstar",
          "security": [
            {
              "code": "medstar",
              "system": "https://www.icanbwell.com/access"
            },
            {
              "code": "medstar",
              "system": "https://www.icanbwell.com/owner"
            },
            {
              "code": "medstar",
              "system": "https://www.icanbwell.com/sourceAssigningAuthority"
            }
          ],
          "versionId": "1"
        },
        "resourceType": "Slot",
        "schedule": {
          "extension": [
            {
              "id": "sourceId",
              "url": "https://www.icanbwell.com/sourceId",
              "valueString": "Schedule/1275501447-UHG-MMMA"
            },
            {
              "id": "uuid",
              "url": "https://www.icanbwell.com/uuid",
              "valueString": "Schedule/6f7f58d5-4ce9-58ed-92b5-9900db8181ee"
            },
            {
              "id": "sourceAssigningAuthority",
              "url": "https://www.icanbwell.com/sourceAssigningAuthority",
              "valueString": "medstar"
            }
          ],
          "reference": "Schedule/1275501447-UHG-MMMA"
        },
        "serviceType": [
          {
            "coding": [
              {
                "code": "EXISTING",
                "system": "http://medstarhealth.org"
              }
            ]
          }
        ],
        "start": "2021-11-04T14:00:00.000+08:00"
      }
    }
  ],
  "resourceType": "Bundle",
  "total": 4,
  "type": "searchset"
}
