{
  "resourceType": "Bundle",
  "id": "bundle-example",
  "type": "collection",
  "entry": [
    {
      "link": "https://127.0.0.1:60688/4_0_0/Practitioner/1679033641",
      "resource": {
        "resourceType": "Practitioner",
        "id": "1679033641",
        "meta": {
          "versionId": "2",
          "lastUpdated": "2021-04-21T20:28:15+00:00"
        },
        "identifier": [
          {
            "use": "usual",
            "type": {
              "coding": [
                {
                  "system": "http://terminology.hl7.org/CodeSystem/v2-0203",
                  "code": "PRN"
                }
              ]
            },
            "system": "http://medstarhealth.org",
            "value": "4657"
          },
          {
            "use": "official",
            "type": {
              "coding": [
                {
                  "system": "http://terminology.hl7.org/CodeSystem/v2-0203",
                  "code": "NPI"
                }
              ]
            },
            "system": "http://hl7.org/fhir/sid/us-npi",
            "value": "1679033641"
          }
        ],
        "active": true,
        "name": [
          {
            "use": "usual",
            "text": "SAMER S. NAJJAR  MD",
            "family": "NAJJAR  MD",
            "given": [
              "SAMER S."
            ]
          },
          {
            "use": "usual",
            "text": "NAJJAR  MD, SAMER S.",
            "family": "NAJJAR  MD",
            "given": [
              "SAMER S."
            ]
          }
        ],
        "telecom": [
          {
            "system": "email",
            "value": "foo@foo.com",
            "use": "work"
          }
        ],
        "gender": "unknown",
        "qualification": [
          {
            "code": {
              "coding": [
                {
                  "system": "http://terminology.hl7.org/ValueSet/v2-2.7-030",
                  "code": "MD"
                }
              ]
            }
          },
          {
            "code": {
              "coding": [
                {
                  "system": "http://terminology.hl7.org/ValueSet/v2-2.7-030",
                  "code": "MD"
                }
              ]
            },
            "period": {
              "start": "1960-01-01",
              "end": "2021-12-11"
            },
            "issuer": {
              "reference": "Organization/Stanford_Medical_School"
            }
          }
        ],
        "communication": [
          {
            "coding": [
              {
                "system": "urn:ietf:bcp:47",
                "code": "en"
              }
            ]
          }
        ]
      }
    },
    {
      "link": "https://127.0.0.1:60688/4_0_0/PractitionerRole/4657-3437",
      "resource": {
        "resourceType": "PractitionerRole",
        "id": "4657-3437",
        "meta": {
          "versionId": "1",
          "lastUpdated": "2021-04-21T20:28:15+00:00"
        },
        "practitioner": {
          "reference": "Practitioner/1679033641"
        },
        "code": [
          {
            "coding": [
              {
                "system": "http://terminology.hl7.org/CodeSystem/practitioner-role",
                "code": "doctor",
                "display": "Doctor"
              }
            ],
            "text": "Doctor"
          }
        ],
        "specialty": [
          {
            "coding": [
              {
                "system": "https://www.http://medstarhealth.org/",
                "code": "Family Medicine",
                "display": "Family Medicine"
              }
            ],
            "text": "Family Medicine"
          },
          {
            "coding": [
              {
                "system": "http://nucc.org/provider-taxonomy",
                "code": "207Q00000X",
                "display": "Family Medicine"
              }
            ],
            "text": "Family Medicine"
          },
          {
            "coding": [
              {
                "system": "http://nucc.org/provider-taxonomy",
                "code": "261QP2300X",
                "display": "Primary Care"
              }
            ],
            "text": "Primary Care"
          }
        ],
        "location": [
          {
            "reference": "Location/UF3-UADM"
          }
        ],
        "healthcareService": [
          {
            "reference": "HealthcareService/1679033641-UF3-UADM"
          }
        ]
      }
    },
    {
      "link": "https://127.0.0.1:60688/4_0_0/PractitionerRole/1679033641-AETNA-Aetna-Elect-Choice--EPO--Aetna-Health-Fund--In",
      "resource": {
        "resourceType": "PractitionerRole",
        "id": "1679033641-AETNA-Aetna-Elect-Choice--EPO--Aetna-Health-Fund--In",
        "meta": {
          "versionId": "1",
          "lastUpdated": "2021-04-21T20:28:15+00:00"
        },
        "extension": [
          {
            "extension": [
              {
                "url": "plan",
                "valueReference": {
                  "reference": "InsurancePlan/AETNA-Aetna-Elect-Choice--EPO--Aetna-Health-Fund--Innovation-He"
                }
              }
            ],
            "url": "https://raw.githubusercontent.com/imranq2/SparkAutoMapper.FHIR/main/StructureDefinition/insurance_plan"
          },
          {
            "url": "foo",
            "valueString": "bar"
          }
        ],
        "practitioner": {
          "reference": "Practitioner/1679033641"
        },
        "organization": {
          "reference": "Organization/MWHC",
          "type": "Organization",
          "display": "MWHC"
        }
      }
    },
    {
      "link": "https://127.0.0.1:60688/4_0_0/PractitionerRole/MAX-MALX",
      "resource": {
        "resourceType": "PractitionerRole",
        "id": "MAX-MALX",
        "meta": {
          "versionId": "1",
          "lastUpdated": "2021-04-21T20:28:15+00:00"
        },
        "identifier": [
          {
            "use": "usual",
            "type": {
              "coding": [
                {
                  "system": "MedstarHealth.org",
                  "code": "Medstar Provider-Scheduling ID",
                  "display": "Medstar Provider-Scheduling ID"
                }
              ]
            },
            "system": "MedstarHealth.org",
            "value": "MAX-MALX"
          }
        ],
        "practitioner": {
          "reference": "Practitioner/1679033641"
        },
        "code": [
          {
            "coding": [
              {
                "system": "http://terminology.hl7.org/CodeSystem/practitioner-role",
                "code": "doctor"
              }
            ]
          }
        ],
        "specialty": [
          {
            "coding": [
              {
                "system": "MedstarHealth.org",
                "code": "Family Medicine",
                "display": "Family Medicine"
              }
            ],
            "text": "Provider's Primary Specialty"
          },
          {
            "coding": [
              {
                "system": "MedstarHealth.org",
                "code": "Family Medicine",
                "display": "Family Medicine"
              }
            ],
            "text": "Provider's Primary Specialty Group"
          }
        ],
        "location": [
          {
            "reference": "Location/MAX-MALX"
          }
        ],
        "healthcareService": [
          {
            "reference": "HealthcareService/MAX-MALX"
          }
        ]
      }
    },
    {
      "link": "https://127.0.0.1:60688/4_0_0/Location/UF3-UADM",
      "resource": {
        "resourceType": "Location",
        "id": "UF3-UADM",
        "meta": {
          "versionId": "1",
          "lastUpdated": "2021-04-21T20:28:15+00:00"
        },
        "identifier": [
          {
            "type": {
              "coding": [
                {
                  "system": "http://terminology.hl7.org/CodeSystem/v2-0203",
                  "code": "FI",
                  "display": "Facility ID"
                }
              ],
              "text": "Facility ID"
            },
            "system": "MedstarHealth.org",
            "value": "UF3"
          },
          {
            "type": {
              "coding": [
                {
                  "system": "http://terminology.hl7.org/CodeSystem/v2-0203",
                  "code": "XX",
                  "display": "Organization Identifier"
                }
              ],
              "text": "Organization Identifier"
            },
            "system": "MedstarHealth.org",
            "value": "3437"
          }
        ],
        "status": "active",
        "name": "UMH 33RD ST PROF BLDG 3RD FL",
        "address": {
          "line": [
            "33RD STREET PROFESSIONAL BLDG,G",
            "200 EAST 33RD STREET"
          ],
          "city": "BALTIMORE",
          "state": "MD",
          "postalCode": "21218"
        },
        "position": {
          "longitude": -76.61668,
          "latitude": 39.32792
        }
      }
    },
    {
      "link": "https://127.0.0.1:60688/4_0_0/HealthcareService/1679033641-UF3-UADM",
      "resource": {
        "resourceType": "HealthcareService",
        "id": "1679033641-UF3-UADM",
        "meta": {
          "versionId": "1",
          "lastUpdated": "2021-04-21T20:28:15+00:00"
        },
        "eligibility": [
          {
            "code": {
              "coding": [
                {
                  "system": "http://snomed.info/sct",
                  "code": "185387006",
                  "display": "New Patient"
                }
              ]
            }
          },
          {
            "code": {
              "coding": [
                {
                  "system": "http://snomed.info/sct",
                  "code": "448337001",
                  "display": "Telehealth Visit"
                }
              ]
            }
          },
          {
            "code": {
              "coding": [
                {
                  "system": "MedstarHealth.org",
                  "code": "0 - 100",
                  "display": "0 - 100"
                }
              ]
            },
            "comment": "Age Group Seen"
          }
        ]
      }
    },
    {
      "link": "https://127.0.0.1:60688/4_0_0/Organization/MWHC",
      "resource": {
        "resourceType": "Organization",
        "id": "MWHC",
        "meta": {
          "versionId": "1",
          "lastUpdated": "2021-04-21T20:28:15+00:00"
        },
        "identifier": [
          {
            "type": {
              "coding": [
                {
                  "system": "http://terminology.hl7.org/CodeSystem/v2-0203",
                  "code": "FI",
                  "display": "Facility Id"
                }
              ]
            },
            "value": "MWHC"
          }
        ],
        "type": [
          {
            "coding": [
              {
                "system": "http://terminology.hl7.org/CodeSystem/organization-type",
                "code": "prov",
                "display": "Healthcare Provider"
              }
            ]
          }
        ]
      }
    },
    {
      "link": "https://127.0.0.1:60688/4_0_0/InsurancePlan/AETNA-Aetna-Elect-Choice--EPO--Aetna-Health-Fund--Innovation-He",
      "resource": {
        "resourceType": "InsurancePlan",
        "id": "AETNA-Aetna-Elect-Choice--EPO--Aetna-Health-Fund--Innovation-He",
        "meta": {
          "versionId": "1",
          "lastUpdated": "2021-04-21T20:28:15+00:00"
        },
        "name": "AETNA-Aetna Elect Choice/ EPO (Aetna Health Fund) Innovation Health: Network Only Plus",
        "ownedBy": {
          "reference": "Organization/AETNA"
        },
        "plan": [
          {
            "identifier": [
              {
                "type": {
                  "coding": [
                    {
                      "system": "http://terminology.hl7.org/CodeSystem/v2-0203",
                      "code": "XV",
                      "display": "Health Plan"
                    }
                  ]
                },
                "value": "Aetna Elect Choice/ EPO (Aetna Health Fund) Innovation Health: Network Only Plus"
              }
            ],
            "coverageArea": [
              {
                "reference": "Location/1886535265"
              }
            ]
          }
        ]
      }
    },
    {
      "link": "https://127.0.0.1:60688/4_0_0/HealthcareService/MAX-MALX",
      "resource": {
        "resourceType": "HealthcareService",
        "id": "MAX-MALX",
        "meta": {
          "versionId": "1",
          "lastUpdated": "2021-04-21T20:28:15+00:00"
        },
        "identifier": [
          {
            "use": "usual",
            "system": "MedstarHealth.org",
            "value": "MAX-MALX"
          }
        ],
        "providedBy": {
          "type": "Organization",
          "identifier": {
            "system": "MedstarHealth.Org",
            "value": "MAX"
          }
        },
        "specialty": [
          {
            "coding": [
              {
                "system": "MedstarHealth.org",
                "code": "Family Medicine",
                "display": "Family Medicine"
              }
            ],
            "text": "Primary Specialty"
          },
          {
            "coding": [
              {
                "system": "MedstarHealth.org",
                "code": "Family Medicine",
                "display": "Family Medicine"
              }
            ],
            "text": "Primary Specialty Group"
          }
        ],
        "name": "Primary Care",
        "eligibility": [
          {
            "code": {
              "coding": [
                {
                  "system": "MedstarHealth.org",
                  "code": "No Limit",
                  "display": "No Limit"
                }
              ]
            },
            "comment": "Minimum patient age"
          },
          {
            "code": {
              "coding": [
                {
                  "system": "MedstarHealth.org",
                  "code": "No Limit",
                  "display": "No Limit"
                }
              ]
            },
            "comment": "Maximum patient age"
          },
          {
            "code": {
              "coding": [
                {
                  "system": "MedstarHealth.org",
                  "code": "Y",
                  "display": "Y"
                }
              ]
            },
            "comment": "Accepts Workers Compensation Patients"
          },
          {
            "code": {
              "coding": [
                {
                  "system": "MedstarHealth.org",
                  "code": "Y",
                  "display": "Y"
                }
              ]
            },
            "comment": "Accepts Auto Accident Patients"
          },
          {
            "code": {
              "coding": [
                {
                  "system": "MedstarHealth.org",
                  "code": "Y",
                  "display": "Y"
                }
              ]
            },
            "comment": "Video Visit available"
          }
        ]
      }
    }
  ]
}
