{
    "entry": [
        {
            "id": "c12345",
            "resource": {
                "resourceType": "Person",
                "id": "c12345",
                "meta": {
                    "versionId": "1",
                    "lastUpdated": "2023-12-21T05:46:51.000Z",
                    "source": "client",
                    "security": [
                        {
                            "system": "https://www.icanbwell.com/access",
                            "code": "client"
                        },
                        {
                            "system": "https://www.icanbwell.com/owner",
                            "code": "client"
                        },
                        {
                            "system": "https://www.icanbwell.com/sourceAssigningAuthority",
                            "code": "client"
                        }
                    ]
                },
                "identifier": [
                    {
                        "id": "sourceId",
                        "system": "https://www.icanbwell.com/sourceId",
                        "value": "c12345"
                    },
                    {
                        "id": "uuid",
                        "system": "https://www.icanbwell.com/uuid",
                        "value": "33226ded-51e8-590e-8342-1197955a2af7"
                    }
                ],
                "name": [
                    {
                        "use": "official",
                        "family": "Irving",
                        "given": [
                            "Lloyd"
                        ]
                    }
                ],
                "gender": "male",
                "birthDate": "1996-03-03",
                "link": [
                    {
                        "target": {
                            "extension": [
                                {
                                    "id": "sourceId",
                                    "url": "https://www.icanbwell.com/sourceId",
                                    "valueString": "Patient/bb7862e6-b7ac-470e-bde3-e85cee9d1ce6"
                                },
                                {
                                    "id": "uuid",
                                    "url": "https://www.icanbwell.com/uuid",
                                    "valueString": "Patient/bb7862e6-b7ac-470e-bde3-e85cee9d1ce6"
                                },
                                {
                                    "id": "sourceAssigningAuthority",
                                    "url": "https://www.icanbwell.com/sourceAssigningAuthority",
                                    "valueString": "client"
                                }
                            ],
                            "reference": "Patient/bb7862e6-b7ac-470e-bde3-e85cee9d1ce6",
                            "type": "Patient"
                        },
                        "assurance": "level4"
                    },
                    {
                        "target": {
                            "extension": [
                                {
                                    "id": "sourceId",
                                    "url": "https://www.icanbwell.com/sourceId",
                                    "valueString": "Patient/bb7862e6-b7ac-470e-bde3-e85cee9d1ce7"
                                },
                                {
                                    "id": "uuid",
                                    "url": "https://www.icanbwell.com/uuid",
                                    "valueString": "Patient/bb7862e6-b7ac-470e-bde3-e85cee9d1ce7"
                                },
                                {
                                    "id": "sourceAssigningAuthority",
                                    "url": "https://www.icanbwell.com/sourceAssigningAuthority",
                                    "valueString": "client"
                                }
                            ],
                            "reference": "Patient/bb7862e6-b7ac-470e-bde3-e85cee9d1ce7",
                            "type": "Patient"
                        },
                        "assurance": "level4"
                    },
                    {
                        "target": {
                            "extension": [
                                {
                                    "id": "sourceId",
                                    "url": "https://www.icanbwell.com/sourceId",
                                    "valueString": "Patient/bb7862e6-b7ac-470e-bde3-e85cee9d1ce8"
                                },
                                {
                                    "id": "uuid",
                                    "url": "https://www.icanbwell.com/uuid",
                                    "valueString": "Patient/bb7862e6-b7ac-470e-bde3-e85cee9d1ce8"
                                },
                                {
                                    "id": "sourceAssigningAuthority",
                                    "url": "https://www.icanbwell.com/sourceAssigningAuthority",
                                    "valueString": "client"
                                }
                            ],
                            "reference": "Patient/bb7862e6-b7ac-470e-bde3-e85cee9d1ce8",
                            "type": "Patient"
                        },
                        "assurance": "level4"
                    },
                    {
                        "target": {
                            "extension": [
                                {
                                    "id": "sourceId",
                                    "url": "https://www.icanbwell.com/sourceId",
                                    "valueString": "Patient/d4c639de-f892-5b89-a63c-f64f0f2d69d1"
                                },
                                {
                                    "id": "uuid",
                                    "url": "https://www.icanbwell.com/uuid",
                                    "valueString": "Patient/d4c639de-f892-5b89-a63c-f64f0f2d69d1"
                                },
                                {
                                    "id": "sourceAssigningAuthority",
                                    "url": "https://www.icanbwell.com/sourceAssigningAuthority",
                                    "valueString": "client"
                                }
                            ],
                            "reference": "Patient/d4c639de-f892-5b89-a63c-f64f0f2d69d1",
                            "type": "Patient"
                        },
                        "assurance": "level4"
                    }
                ]
            }
        },
        {
            "id": "bb7862e6-b7ac-470e-bde3-e85cee9d1ce6",
            "resource": {
                "resourceType": "Patient",
                "id": "bb7862e6-b7ac-470e-bde3-e85cee9d1ce6",
                "meta": {
                    "versionId": "1",
                    "lastUpdated": "2023-12-21T05:46:51.000Z",
                    "source": "client",
                    "security": [
                        {
                            "system": "https://www.icanbwell.com/access",
                            "code": "client"
                        },
                        {
                            "system": "https://www.icanbwell.com/owner",
                            "code": "client"
                        },
                        {
                            "system": "https://www.icanbwell.com/sourceAssigningAuthority",
                            "code": "client"
                        }
                    ]
                },
                "identifier": [
                    {
                        "id": "sourceId",
                        "system": "https://www.icanbwell.com/sourceId",
                        "value": "bb7862e6-b7ac-470e-bde3-e85cee9d1ce6"
                    },
                    {
                        "id": "uuid",
                        "system": "https://www.icanbwell.com/uuid",
                        "value": "bb7862e6-b7ac-470e-bde3-e85cee9d1ce6"
                    }
                ],
                "name": [
                    {
                        "use": "usual",
                        "text": "t",
                        "family": "PATIENT1",
                        "given": [
                            "SHYLA"
                        ]
                    }
                ],
                "gender": "female",
                "birthDate": "2017-01-01"
            }
        },
        {
            "id": "444ab834-41b9-4e54-b360-436130857415",
            "resource": {
                "resourceType": "Consent",
                "id": "444ab834-41b9-4e54-b360-436130857415",
                "meta": {
                    "versionId": "1",
                    "lastUpdated": "2023-12-21T05:46:51.000Z",
                    "source": "client",
                    "security": [
                        {
                            "system": "https://www.icanbwell.com/access",
                            "code": "client"
                        },
                        {
                            "system": "https://www.icanbwell.com/owner",
                            "code": "client"
                        },
                        {
                            "system": "https://www.icanbwell.com/sourceAssigningAuthority",
                            "code": "client"
                        }
                    ]
                },
                "identifier": [
                    {
                        "id": "sourceId",
                        "system": "https://www.icanbwell.com/sourceId",
                        "value": "444ab834-41b9-4e54-b360-436130857415"
                    },
                    {
                        "id": "uuid",
                        "system": "https://www.icanbwell.com/uuid",
                        "value": "444ab834-41b9-4e54-b360-436130857415"
                    }
                ],
                "status": "active",
                "scope": {
                    "coding": [
                        {
                            "system": "http://terminology.hl7.org/CodeSystem/consentscope",
                            "code": "patient-privacy"
                        }
                    ]
                },
                "category": [
                    {
                        "coding": [
                            {
                                "system": "http://loinc.org",
                                "code": "59284-0"
                            }
                        ]
                    }
                ],
                "patient": {
                    "extension": [
                        {
                            "id": "sourceId",
                            "url": "https://www.icanbwell.com/sourceId",
                            "valueString": "Patient/bb7862e6-b7ac-470e-bde3-e85cee9d1ce6"
                        },
                        {
                            "id": "uuid",
                            "url": "https://www.icanbwell.com/uuid",
                            "valueString": "Patient/bb7862e6-b7ac-470e-bde3-e85cee9d1ce6"
                        },
                        {
                            "id": "sourceAssigningAuthority",
                            "url": "https://www.icanbwell.com/sourceAssigningAuthority",
                            "valueString": "client"
                        }
                    ],
                    "reference": "Patient/bb7862e6-b7ac-470e-bde3-e85cee9d1ce6"
                },
                "dateTime": "2022-09-08T14:05:07.350Z",
                "provision": {
                    "type": "deny",
                    "actor": [
                        {
                            "role": {
                                "coding": [
                                    {
                                        "system": "http://terminology.hl7.org/CodeSystem/v3-ParticipationType",
                                        "code": "CST"
                                    }
                                ]
                            },
                            "reference": {
                                "extension": [
                                    {
                                        "id": "sourceId",
                                        "url": "https://www.icanbwell.com/sourceId",
                                        "valueString": "Patient/bb7862e6-b7ac-470e-bde3-e85cee9d1ce6"
                                    },
                                    {
                                        "id": "uuid",
                                        "url": "https://www.icanbwell.com/uuid",
                                        "valueString": "Patient/bb7862e6-b7ac-470e-bde3-e85cee9d1ce6"
                                    },
                                    {
                                        "id": "sourceAssigningAuthority",
                                        "url": "https://www.icanbwell.com/sourceAssigningAuthority",
                                        "valueString": "client"
                                    }
                                ],
                                "reference": "Patient/bb7862e6-b7ac-470e-bde3-e85cee9d1ce6"
                            }
                        },
                        {
                            "role": {
                                "coding": [
                                    {
                                        "system": "http://terminology.hl7.org/3.1.0/CodeSystem-v3-RoleCode.html",
                                        "code": "AUT"
                                    }
                                ]
                            },
                            "reference": {
                                "extension": [
                                    {
                                        "id": "sourceId",
                                        "url": "https://www.icanbwell.com/sourceId",
                                        "valueString": "Patient/person.33226ded-51e8-590e-8342-1197955a2af7"
                                    },
                                    {
                                        "id": "uuid",
                                        "url": "https://www.icanbwell.com/uuid",
                                        "valueString": "Patient/person.33226ded-51e8-590e-8342-1197955a2af7"
                                    },
                                    {
                                        "id": "sourceAssigningAuthority",
                                        "url": "https://www.icanbwell.com/sourceAssigningAuthority",
                                        "valueString": "client"
                                    }
                                ],
                                "reference": "Patient/person.33226ded-51e8-590e-8342-1197955a2af7"
                            }
                        }
                    ],
                    "class": [
                        {
                            "code": "/dataSharingConsent"
                        }
                    ]
                }
            }
        },
        {
            "id": "b59f86b9-5307-506a-bb6c-3eb555ace522",
            "resource": {
                "resourceType": "Observation",
                "id": "b59f86b9-5307-506a-bb6c-3eb555ace522",
                "meta": {
                    "versionId": "1",
                    "lastUpdated": "2023-12-21T05:46:51.000Z",
                    "source": "/patients",
                    "security": [
                        {
                            "system": "https://www.icanbwell.com/owner",
                            "code": "client"
                        },
                        {
                            "system": "https://www.icanbwell.com/access",
                            "code": "client"
                        },
                        {
                            "system": "https://www.icanbwell.com/vendor",
                            "code": "client"
                        },
                        {
                            "system": "https://www.icanbwell.com/sourceAssigningAuthority",
                            "code": "client"
                        }
                    ]
                },
                "identifier": [
                    {
                        "id": "sourceId",
                        "system": "https://www.icanbwell.com/sourceId",
                        "value": "b59f86b9-5307-506a-bb6c-3eb555ace522"
                    },
                    {
                        "id": "uuid",
                        "system": "https://www.icanbwell.com/uuid",
                        "value": "b59f86b9-5307-506a-bb6c-3eb555ace522"
                    }
                ],
                "status": "final",
                "code": {
                    "coding": [
                        {
                            "system": "http://www.icanbwell.com/cql/library",
                            "code": "BMI001"
                        },
                        {
                            "system": "http://www.icanbwell.com/cql/libraryVersion",
                            "code": "1.0.0"
                        },
                        {
                            "system": "http://www.icanbwell.com/cql/rule",
                            "code": "InAgeCohort"
                        }
                    ]
                },
                "subject": {
                    "extension": [
                        {
                            "id": "sourceId",
                            "url": "https://www.icanbwell.com/sourceId",
                            "valueString": "Patient/bb7862e6-b7ac-470e-bde3-e85cee9d1ce6"
                        },
                        {
                            "id": "uuid",
                            "url": "https://www.icanbwell.com/uuid",
                            "valueString": "Patient/bb7862e6-b7ac-470e-bde3-e85cee9d1ce6"
                        },
                        {
                            "id": "sourceAssigningAuthority",
                            "url": "https://www.icanbwell.com/sourceAssigningAuthority",
                            "valueString": "client"
                        }
                    ],
                    "reference": "Patient/bb7862e6-b7ac-470e-bde3-e85cee9d1ce6"
                },
                "effectivePeriod": {
                    "start": "2021-01-01T00:00:00.000Z",
                    "end": "2021-12-31T00:00:00.000Z"
                },
                "issued": "2021-01-01T12:00:00Z",
                "valueBoolean": false
            }
        },
        {
            "id": "d4c639de-f892-5b89-a63c-f64f0f2d69d1",
            "resource": {
                "resourceType": "Patient",
                "id": "d4c639de-f892-5b89-a63c-f64f0f2d69d1",
                "meta": {
                    "versionId": "1",
                    "lastUpdated": "2023-12-22T19:25:01.000Z",
                    "source": "health-service-2",
                    "security": [
                        {
                            "system": "https://www.icanbwell.com/access",
                            "code": "health-service-2"
                        },
                        {
                            "system": "https://www.icanbwell.com/owner",
                            "code": "health-service-2"
                        },
                        {
                            "system": "https://www.icanbwell.com/connectionType",
                            "code": "hipaa"
                        },
                        {
                            "system": "https://www.icanbwell.com/sourceAssigningAuthority",
                            "code": "health-service-2"
                        }
                    ]
                },
                "identifier": [
                    {
                        "id": "sourceId",
                        "system": "https://www.icanbwell.com/sourceId",
                        "value": "d4c639de-f892-5b89-a63c-f64f0f2d69d1"
                    },
                    {
                        "id": "uuid",
                        "system": "https://www.icanbwell.com/uuid",
                        "value": "d4c639de-f892-5b89-a63c-f64f0f2d69d1"
                    }
                ],
                "name": [
                    {
                        "use": "usual",
                        "text": "t",
                        "family": "PATIENT1",
                        "given": [
                            "SHYLA"
                        ]
                    }
                ],
                "gender": "female",
                "birthDate": "2017-01-01"
            }
        },
        {
            "id": "b59f86b9-5307-506a-bb6c-3eb555ace5o7",
            "resource": {
                "resourceType": "Observation",
                "id": "b59f86b9-5307-506a-bb6c-3eb555ace5o7",
                "meta": {
                    "versionId": "1",
                    "lastUpdated": "2023-12-22T20:04:52.000Z",
                    "source": "health-service-2",
                    "security": [
                        {
                            "system": "https://www.icanbwell.com/owner",
                            "code": "health-service-2"
                        },
                        {
                            "system": "https://www.icanbwell.com/access",
                            "code": "health-service-2"
                        },
                        {
                            "system": "https://www.icanbwell.com/vendor",
                            "code": "health-service-2"
                        },
                        {
                            "system": "https://www.icanbwell.com/connectionType",
                            "code": "hipaa"
                        },
                        {
                            "system": "https://www.icanbwell.com/sourceAssigningAuthority",
                            "code": "health-service-2"
                        }
                    ]
                },
                "identifier": [
                    {
                        "id": "sourceId",
                        "system": "https://www.icanbwell.com/sourceId",
                        "value": "b59f86b9-5307-506a-bb6c-3eb555ace5o7"
                    },
                    {
                        "id": "uuid",
                        "system": "https://www.icanbwell.com/uuid",
                        "value": "13f24506-ec63-582f-8b11-cc079751bf20"
                    }
                ],
                "status": "final",
                "code": {
                    "coding": [
                        {
                            "system": "http://www.icanbwell.com/cql/library",
                            "code": "BMI001"
                        },
                        {
                            "system": "http://www.icanbwell.com/cql/libraryVersion",
                            "code": "1.0.0"
                        },
                        {
                            "system": "http://www.icanbwell.com/cql/rule",
                            "code": "InAgeCohort"
                        }
                    ]
                },
                "subject": {
                    "extension": [
                        {
                            "id": "sourceId",
                            "url": "https://www.icanbwell.com/sourceId",
                            "valueString": "Patient/d4c639de-f892-5b89-a63c-f64f0f2d69d1"
                        },
                        {
                            "id": "uuid",
                            "url": "https://www.icanbwell.com/uuid",
                            "valueString": "Patient/d4c639de-f892-5b89-a63c-f64f0f2d69d1"
                        },
                        {
                            "id": "sourceAssigningAuthority",
                            "url": "https://www.icanbwell.com/sourceAssigningAuthority",
                            "valueString": "health-service-2"
                        }
                    ],
                    "reference": "Patient/d4c639de-f892-5b89-a63c-f64f0f2d69d1"
                },
                "effectivePeriod": {
                    "start": "2021-01-01T00:00:00.000Z",
                    "end": "2021-12-31T00:00:00.000Z"
                },
                "issued": "2021-01-01T12:00:00Z",
                "valueBoolean": false
            }
        }
    ],
    "resourceType": "Bundle",
    "type": "searchset",
    "timestamp": "2023-12-21T05:47:09.099Z",
    "total": 6,
    "link": [
        {
            "relation": "self",
            "url": "http://localhost:3000/4_0_0/Person/c12345/$everything"
        }
    ]
}
