{
    "entry": [
        {
            "id": "c12345",
            "resource": {
                "resourceType": "Person",
                "id": "c12345",
                "meta": {
                    "versionId": "1",
                    "lastUpdated": "2023-12-21T05:53:06.000Z",
                    "source": "client",
                    "security": [
                        {
                            "system": "https://www.icanbwell.com/access",
                            "id": "21b6850a-a1fb-5de3-8f69-7962d5394390",
                            "code": "client"
                        },
                        {
                            "system": "https://www.icanbwell.com/owner",
                            "id": "1642e685-6de9-5bdb-89e8-b62ffe4420eb",
                            "code": "client"
                        },
                        {
                            "system": "https://www.icanbwell.com/sourceAssigningAuthority",
                            "id": "cea955c4-9b2c-5b0d-8b48-acfd40cabb59",
                            "code": "client"
                        }
                    ]
                },
                "identifier": [
                    {
                        "id": "sourceId",
                        "system": "https://www.icanbwell.com/sourceId",
                        "value": "c12345"
                    },
                    {
                        "id": "uuid",
                        "system": "https://www.icanbwell.com/uuid",
                        "value": "33226ded-51e8-590e-8342-1197955a2af7"
                    }
                ],
                "name": [
                    {
                        "use": "official",
                        "family": "Irving",
                        "given": [
                            "Lloyd"
                        ]
                    }
                ],
                "gender": "male",
                "birthDate": "1996-03-03",
                "link": [
                    {
                        "target": {
                            "extension": [
                                {
                                    "id": "sourceId",
                                    "url": "https://www.icanbwell.com/sourceId",
                                    "valueString": "Patient/bb7862e6-b7ac-470e-bde3-e85cee9d1ce6"
                                },
                                {
                                    "id": "uuid",
                                    "url": "https://www.icanbwell.com/uuid",
                                    "valueString": "Patient/bb7862e6-b7ac-470e-bde3-e85cee9d1ce6"
                                },
                                {
                                    "id": "sourceAssigningAuthority",
                                    "url": "https://www.icanbwell.com/sourceAssigningAuthority",
                                    "valueString": "client"
                                }
                            ],
                            "reference": "Patient/bb7862e6-b7ac-470e-bde3-e85cee9d1ce6",
                            "type": "Patient"
                        },
                        "assurance": "level4"
                    },
                    {
                        "target": {
                            "extension": [
                                {
                                    "id": "sourceId",
                                    "url": "https://www.icanbwell.com/sourceId",
                                    "valueString": "Patient/bb7862e6-b7ac-470e-bde3-e85cee9d1ce7"
                                },
                                {
                                    "id": "uuid",
                                    "url": "https://www.icanbwell.com/uuid",
                                    "valueString": "Patient/bb7862e6-b7ac-470e-bde3-e85cee9d1ce7"
                                },
                                {
                                    "id": "sourceAssigningAuthority",
                                    "url": "https://www.icanbwell.com/sourceAssigningAuthority",
                                    "valueString": "client"
                                }
                            ],
                            "reference": "Patient/bb7862e6-b7ac-470e-bde3-e85cee9d1ce7",
                            "type": "Patient"
                        },
                        "assurance": "level4"
                    },
                    {
                        "target": {
                            "extension": [
                                {
                                    "id": "sourceId",
                                    "url": "https://www.icanbwell.com/sourceId",
                                    "valueString": "Patient/bb7862e6-b7ac-470e-bde3-e85cee9d1ce8"
                                },
                                {
                                    "id": "uuid",
                                    "url": "https://www.icanbwell.com/uuid",
                                    "valueString": "Patient/bb7862e6-b7ac-470e-bde3-e85cee9d1ce8"
                                },
                                {
                                    "id": "sourceAssigningAuthority",
                                    "url": "https://www.icanbwell.com/sourceAssigningAuthority",
                                    "valueString": "client"
                                }
                            ],
                            "reference": "Patient/bb7862e6-b7ac-470e-bde3-e85cee9d1ce8",
                            "type": "Patient"
                        },
                        "assurance": "level4"
                    },
                    {
                        "target": {
                            "extension": [
                                {
                                    "id": "sourceId",
                                    "url": "https://www.icanbwell.com/sourceId",
                                    "valueString": "Patient/d4c639de-f892-5b89-a63c-f64f0f2d69d1"
                                },
                                {
                                    "id": "uuid",
                                    "url": "https://www.icanbwell.com/uuid",
                                    "valueString": "Patient/d4c639de-f892-5b89-a63c-f64f0f2d69d1"
                                },
                                {
                                    "id": "sourceAssigningAuthority",
                                    "url": "https://www.icanbwell.com/sourceAssigningAuthority",
                                    "valueString": "client"
                                }
                            ],
                            "reference": "Patient/d4c639de-f892-5b89-a63c-f64f0f2d69d1",
                            "type": "Patient"
                        },
                        "assurance": "level4"
                    }
                ]
            }
        },
        {
            "id": "bb7862e6-b7ac-470e-bde3-e85cee9d1ce6",
            "resource": {
                "resourceType": "Patient",
                "id": "bb7862e6-b7ac-470e-bde3-e85cee9d1ce6",
                "meta": {
                    "versionId": "1",
                    "lastUpdated": "2023-12-21T05:53:06.000Z",
                    "source": "client",
                    "security": [
                        {
                            "system": "https://www.icanbwell.com/access",
                            "id": "21b6850a-a1fb-5de3-8f69-7962d5394390",
                            "code": "client"
                        },
                        {
                            "system": "https://www.icanbwell.com/owner",
                            "id": "1642e685-6de9-5bdb-89e8-b62ffe4420eb",
                            "code": "client"
                        },
                        {
                            "system": "https://www.icanbwell.com/sourceAssigningAuthority",
                            "id": "cea955c4-9b2c-5b0d-8b48-acfd40cabb59",
                            "code": "client"
                        }
                    ]
                },
                "identifier": [
                    {
                        "id": "sourceId",
                        "system": "https://www.icanbwell.com/sourceId",
                        "value": "bb7862e6-b7ac-470e-bde3-e85cee9d1ce6"
                    },
                    {
                        "id": "uuid",
                        "system": "https://www.icanbwell.com/uuid",
                        "value": "bb7862e6-b7ac-470e-bde3-e85cee9d1ce6"
                    }
                ],
                "name": [
                    {
                        "use": "usual",
                        "text": "t",
                        "family": "PATIENT1",
                        "given": [
                            "SHYLA"
                        ]
                    }
                ],
                "gender": "female",
                "birthDate": "2017-01-01"
            }
        },
        {
            "id": "c3d80c0f-8f1e-49b1-bc93-65bcef18b34c",
            "resource": {
                "resourceType": "Consent",
                "id": "c3d80c0f-8f1e-49b1-bc93-65bcef18b34c",
                "meta": {
                    "versionId": "1",
                    "lastUpdated": "2023-12-21T05:53:06.000Z",
                    "source": "client",
                    "security": [
                        {
                            "system": "https://www.icanbwell.com/access",
                            "id": "21b6850a-a1fb-5de3-8f69-7962d5394390",
                            "code": "client"
                        },
                        {
                            "system": "https://www.icanbwell.com/owner",
                            "id": "1642e685-6de9-5bdb-89e8-b62ffe4420eb",
                            "code": "client"
                        },
                        {
                            "system": "https://www.icanbwell.com/sourceAssigningAuthority",
                            "id": "cea955c4-9b2c-5b0d-8b48-acfd40cabb59",
                            "code": "client"
                        }
                    ]
                },
                "identifier": [
                    {
                        "id": "sourceId",
                        "system": "https://www.icanbwell.com/sourceId",
                        "value": "c3d80c0f-8f1e-49b1-bc93-65bcef18b34c"
                    },
                    {
                        "id": "uuid",
                        "system": "https://www.icanbwell.com/uuid",
                        "value": "c3d80c0f-8f1e-49b1-bc93-65bcef18b34c"
                    }
                ],
                "status": "active",
                "scope": {
                    "coding": [
                        {
                            "id": "402a7d2e-3eb0-5e9a-9af5-cf374c9ca561",
                            "system": "http://terminology.hl7.org/CodeSystem/consentscope",
                            "code": "patient-privacy"
                        }
                    ]
                },
                "category": [
                    {
                        "coding": [
                            {
                                "id": "1e6aaed1-2da2-5477-b697-515e4b974c40",
                                "system": "http://www.icanbwell.com/consent-category",
                                "code": "dataSharing"
                            }
                        ]
                    }
                ],
                "patient": {
                    "extension": [
                        {
                            "id": "sourceId",
                            "url": "https://www.icanbwell.com/sourceId",
                            "valueString": "Patient/bb7862e6-b7ac-470e-bde3-e85cee9d1ce6"
                        },
                        {
                            "id": "uuid",
                            "url": "https://www.icanbwell.com/uuid",
                            "valueString": "Patient/bb7862e6-b7ac-470e-bde3-e85cee9d1ce6"
                        },
                        {
                            "id": "sourceAssigningAuthority",
                            "url": "https://www.icanbwell.com/sourceAssigningAuthority",
                            "valueString": "client"
                        }
                    ],
                    "reference": "Patient/bb7862e6-b7ac-470e-bde3-e85cee9d1ce6"
                },
                "dateTime": "2022-09-08T14:05:07.350Z",
                "provision": {
                    "type": "permit",
                    "actor": [
                        {
                            "role": {
                                "coding": [
                                    {
                                        "id": "ac233a7e-59c2-52b0-868f-7c81bf474f9e",
                                        "system": "http://terminology.hl7.org/CodeSystem/v3-ParticipationType",
                                        "code": "CST"
                                    }
                                ]
                            },
                            "reference": {
                                "extension": [
                                    {
                                        "id": "sourceId",
                                        "url": "https://www.icanbwell.com/sourceId",
                                        "valueString": "Patient/bb7862e6-b7ac-470e-bde3-e85cee9d1ce6"
                                    },
                                    {
                                        "id": "uuid",
                                        "url": "https://www.icanbwell.com/uuid",
                                        "valueString": "Patient/bb7862e6-b7ac-470e-bde3-e85cee9d1ce6"
                                    },
                                    {
                                        "id": "sourceAssigningAuthority",
                                        "url": "https://www.icanbwell.com/sourceAssigningAuthority",
                                        "valueString": "client"
                                    }
                                ],
                                "reference": "Patient/bb7862e6-b7ac-470e-bde3-e85cee9d1ce6"
                            }
                        },
                        {
                            "role": {
                                "coding": [
                                    {
                                        "id": "8dffd9c4-05ce-5760-b4c0-70ca86d39a0f",
                                        "system": "http://terminology.hl7.org/3.1.0/CodeSystem-v3-RoleCode.html",
                                        "code": "AUT"
                                    }
                                ]
                            },
                            "reference": {
                                "extension": [
                                    {
                                        "id": "sourceId",
                                        "url": "https://www.icanbwell.com/sourceId",
                                        "valueString": "Patient/person.33226ded-51e8-590e-8342-1197955a2af7"
                                    },
                                    {
                                        "id": "uuid",
                                        "url": "https://www.icanbwell.com/uuid",
                                        "valueString": "Patient/person.33226ded-51e8-590e-8342-1197955a2af7"
                                    },
                                    {
                                        "id": "sourceAssigningAuthority",
                                        "url": "https://www.icanbwell.com/sourceAssigningAuthority",
                                        "valueString": "client"
                                    }
                                ],
                                "reference": "Patient/person.33226ded-51e8-590e-8342-1197955a2af7"
                            }
                        }
                    ]
                }
            }
        },
        {
            "id": "b59f86b9-5307-506a-bb6c-3eb555ace522",
            "resource": {
                "resourceType": "Observation",
                "id": "b59f86b9-5307-506a-bb6c-3eb555ace522",
                "meta": {
                    "versionId": "1",
                    "lastUpdated": "2023-12-21T05:53:06.000Z",
                    "source": "/patients",
                  "security": [
                    {
                      "system": "https://www.icanbwell.com/owner",
                      "id": "1642e685-6de9-5bdb-89e8-b62ffe4420eb",
                      "code": "client"
                    },
                    {
                      "system": "https://www.icanbwell.com/access",
                      "id": "21b6850a-a1fb-5de3-8f69-7962d5394390",
                      "code": "client"
                    },
                    {
                      "system": "https://www.icanbwell.com/vendor",
                      "id": "73d07b77-99af-5176-83fa-9916acbb0664",
                      "code": "client"
                    },
                    {
                      "system": "https://www.icanbwell.com/sourceAssigningAuthority",
                      "id": "cea955c4-9b2c-5b0d-8b48-acfd40cabb59",
                      "code": "client"
                    }
                  ]
                },
                "identifier": [
                    {
                        "id": "sourceId",
                        "system": "https://www.icanbwell.com/sourceId",
                        "value": "b59f86b9-5307-506a-bb6c-3eb555ace522"
                    },
                    {
                        "id": "uuid",
                        "system": "https://www.icanbwell.com/uuid",
                        "value": "b59f86b9-5307-506a-bb6c-3eb555ace522"
                    }
                ],
                "status": "final",
                "code": {
                    "coding": [
                        {
                            "id": "62186514-8c23-5680-85fd-b6898c99eacb",
                            "system": "http://www.icanbwell.com/cql/library",
                            "code": "BMI001"
                        },
                        {
                            "id": "77b3739c-725f-5833-a93e-cce825fb7b4a",
                            "system": "http://www.icanbwell.com/cql/libraryVersion",
                            "code": "1.0.0"
                        },
                        {
                            "id": "977380c4-aca5-57a2-9eab-03eea0c1941d",
                            "system": "http://www.icanbwell.com/cql/rule",
                            "code": "InAgeCohort"
                        }
                    ]
                },
                "subject": {
                    "extension": [
                        {
                            "id": "sourceId",
                            "url": "https://www.icanbwell.com/sourceId",
                            "valueString": "Patient/bb7862e6-b7ac-470e-bde3-e85cee9d1ce6"
                        },
                        {
                            "id": "uuid",
                            "url": "https://www.icanbwell.com/uuid",
                            "valueString": "Patient/bb7862e6-b7ac-470e-bde3-e85cee9d1ce6"
                        },
                        {
                            "id": "sourceAssigningAuthority",
                            "url": "https://www.icanbwell.com/sourceAssigningAuthority",
                            "valueString": "client"
                        }
                    ],
                    "reference": "Patient/bb7862e6-b7ac-470e-bde3-e85cee9d1ce6"
                },
                "effectivePeriod": {
                    "start": "2021-01-01T00:00:00.000Z",
                    "end": "2021-12-31T00:00:00.000Z"
                },
                "issued": "2021-01-01T12:00:00.000Z",
                "valueBoolean": false
            }
        },
        {
            "id": "d4c639de-f892-5b89-a63c-f64f0f2d69d1",
            "resource": {
                "resourceType": "Patient",
                "id": "d4c639de-f892-5b89-a63c-f64f0f2d69d1",
                "meta": {
                    "versionId": "1",
                    "lastUpdated": "2023-12-22T19:25:01.000Z",
                    "source": "health-service-2",
                    "security": [
                        {
                            "system": "https://www.icanbwell.com/access",
                            "id": "2750b5b6-9f17-5403-87cd-0c42d79ca8a0",
                            "code": "health-service-2"
                        },
                        {
                            "system": "https://www.icanbwell.com/owner",
                             "id": "13d85002-9a4d-537f-beb5-0c3f441bb40b",
                            "code": "health-service-2"
                        },
                        {
                            "system": "https://www.icanbwell.com/connectionType",
                             "id": "2ed78795-8f38-5210-b6cd-df171a6a8c7a",
                            "code": "hipaa"
                        },
                        {
                            "system": "https://www.icanbwell.com/sourceAssigningAuthority",
                            "id": "ebd24e17-f506-5167-af49-deed137a81d0",
                            "code": "health-service-2"
                        }
                    ]
                },
                "identifier": [
                    {
                        "id": "sourceId",
                        "system": "https://www.icanbwell.com/sourceId",
                        "value": "d4c639de-f892-5b89-a63c-f64f0f2d69d1"
                    },
                    {
                        "id": "uuid",
                        "system": "https://www.icanbwell.com/uuid",
                        "value": "d4c639de-f892-5b89-a63c-f64f0f2d69d1"
                    }
                ],
                "name": [
                    {
                        "use": "usual",
                        "text": "t",
                        "family": "PATIENT1",
                        "given": [
                            "SHYLA"
                        ]
                    }
                ],
                "gender": "female",
                "birthDate": "2017-01-01"
            }
        },
        {
            "id": "b59f86b9-5307-506a-bb6c-3eb555ace5o7",
            "resource": {
                "resourceType": "Observation",
                "id": "b59f86b9-5307-506a-bb6c-3eb555ace5o7",
                "meta": {
                    "versionId": "1",
                    "lastUpdated": "2023-12-22T20:04:52.000Z",
                    "source": "health-service-2",
                    "security": [
                        {
                            "system": "https://www.icanbwell.com/owner",
                             "id": "13d85002-9a4d-537f-beb5-0c3f441bb40b",
                            "code": "health-service-2"
                        },
                        {
                            "system": "https://www.icanbwell.com/access",
                            "id": "2750b5b6-9f17-5403-87cd-0c42d79ca8a0",
                            "code": "health-service-2"
                        },
                        {
                            "system": "https://www.icanbwell.com/vendor",
                             "id": "1eef984b-bbab-548e-9b2d-c6853c96c96e",
                            "code": "health-service-2"
                        },
                        {
                            "system": "https://www.icanbwell.com/connectionType",
                             "id": "2ed78795-8f38-5210-b6cd-df171a6a8c7a",
                            "code": "hipaa"
                        },
                        {
                            "system": "https://www.icanbwell.com/sourceAssigningAuthority",
                            "id": "ebd24e17-f506-5167-af49-deed137a81d0",
                            "code": "health-service-2"
                        }
                    ]
                },
                "identifier": [
                    {
                        "id": "sourceId",
                        "system": "https://www.icanbwell.com/sourceId",
                        "value": "b59f86b9-5307-506a-bb6c-3eb555ace5o7"
                    },
                    {
                        "id": "uuid",
                        "system": "https://www.icanbwell.com/uuid",
                        "value": "13f24506-ec63-582f-8b11-cc079751bf20"
                    }
                ],
                "status": "final",
                "code": {
                    "coding": [
                        {
                            "id": "62186514-8c23-5680-85fd-b6898c99eacb",
                            "system": "http://www.icanbwell.com/cql/library",
                            "code": "BMI001"
                        },
                        {
                            "id": "77b3739c-725f-5833-a93e-cce825fb7b4a",
                            "system": "http://www.icanbwell.com/cql/libraryVersion",
                            "code": "1.0.0"
                        },
                        {
                            "id": "977380c4-aca5-57a2-9eab-03eea0c1941d",
                            "system": "http://www.icanbwell.com/cql/rule",
                            "code": "InAgeCohort"
                        }
                    ]
                },
                "subject": {
                    "extension": [
                        {
                            "id": "sourceId",
                            "url": "https://www.icanbwell.com/sourceId",
                            "valueString": "Patient/d4c639de-f892-5b89-a63c-f64f0f2d69d1"
                        },
                        {
                            "id": "uuid",
                            "url": "https://www.icanbwell.com/uuid",
                            "valueString": "Patient/d4c639de-f892-5b89-a63c-f64f0f2d69d1"
                        },
                        {
                            "id": "sourceAssigningAuthority",
                            "url": "https://www.icanbwell.com/sourceAssigningAuthority",
                            "valueString": "health-service-2"
                        }
                    ],
                    "reference": "Patient/d4c639de-f892-5b89-a63c-f64f0f2d69d1"
                },
                "effectivePeriod": {
                    "start": "2021-01-01T00:00:00.000Z",
                    "end": "2021-12-31T00:00:00.000Z"
                },
                "issued": "2021-01-01T12:00:00.000Z",
                "valueBoolean": false
            }
        },
        {
            "id": "bb7862e6-b7ac-470e-bde3-e85cee9d1ce7",
            "resource": {
                "resourceType": "Patient",
                "id": "bb7862e6-b7ac-470e-bde3-e85cee9d1ce7",
                "meta": {
                    "versionId": "1",
                    "lastUpdated": "2023-12-22T20:25:29.000Z",
                    "source": "health-service",
                    "security": [
                        {
                            "system": "https://www.icanbwell.com/access",
                            "id": "df90c588-4a1f-5143-81fd-1979af1bf5f5",
                            "code": "health-service"
                        },
                        {
                            "system": "https://www.icanbwell.com/owner",
                            "id": "cb9ef6f2-7bc8-537a-85da-9964df3e8447",
                            "code": "health-service"
                        },
                        {
                            "system": "https://www.icanbwell.com/connectionType",
                            "id": "2ddb7b9d-413a-59ba-abb6-65774d005ed9",
                            "code": "proa"
                        },
                        {
                            "system": "https://www.icanbwell.com/sourceAssigningAuthority",
                            "id": "071ef0c8-6851-532d-9a47-ad2db2dfb0ab",
                            "code": "health-service"
                        }
                    ]
                },
                "identifier": [
                    {
                        "id": "sourceId",
                        "system": "https://www.icanbwell.com/sourceId",
                        "value": "bb7862e6-b7ac-470e-bde3-e85cee9d1ce7"
                    },
                    {
                        "id": "uuid",
                        "system": "https://www.icanbwell.com/uuid",
                        "value": "bb7862e6-b7ac-470e-bde3-e85cee9d1ce7"
                    }
                ],
                "name": [
                    {
                        "use": "usual",
                        "text": "t",
                        "family": "PATIENT1",
                        "given": [
                            "SHYLA"
                        ]
                    }
                ],
                "gender": "female",
                "birthDate": "2017-01-01"
            }
        },
        {
            "id": "b59f86b9-5307-506a-bb6c-3eb555ace5o1",
            "resource": {
                "resourceType": "Observation",
                "id": "b59f86b9-5307-506a-bb6c-3eb555ace5o1",
                "meta": {
                    "versionId": "1",
                    "lastUpdated": "2023-12-22T20:28:41.000Z",
                    "source": "/patients",
                    "security": [
                        {
                            "system": "https://www.icanbwell.com/owner",
                            "id": "cb9ef6f2-7bc8-537a-85da-9964df3e8447",
                            "code": "health-service"
                        },
                        {
                            "system": "https://www.icanbwell.com/access",
                            "id": "df90c588-4a1f-5143-81fd-1979af1bf5f5",
                            "code": "health-service"
                        },
                        {
                            "system": "https://www.icanbwell.com/vendor",
                            "id": "9aa14c9a-89c6-5084-ac53-859cf62db6f1",
                            "code": "health-service"
                        },
                        {
                            "system": "https://www.icanbwell.com/connectionType",
                            "id": "2ddb7b9d-413a-59ba-abb6-65774d005ed9",
                            "code": "proa"
                        },
                        {
                            "system": "https://www.icanbwell.com/sourceAssigningAuthority",
                            "id": "071ef0c8-6851-532d-9a47-ad2db2dfb0ab",
                            "code": "health-service"
                        }
                    ]
                },
                "identifier": [
                    {
                        "id": "sourceId",
                        "system": "https://www.icanbwell.com/sourceId",
                        "value": "b59f86b9-5307-506a-bb6c-3eb555ace5o1"
                    },
                    {
                        "id": "uuid",
                        "system": "https://www.icanbwell.com/uuid",
                        "value": "e2928713-41bb-580d-85d6-4109d32ff5e3"
                    }
                ],
                "status": "final",
                "code": {
                    "coding": [
                        {
                            "id": "62186514-8c23-5680-85fd-b6898c99eacb",
                            "system": "http://www.icanbwell.com/cql/library",
                            "code": "BMI001"
                        },
                        {
                            "id": "77b3739c-725f-5833-a93e-cce825fb7b4a",
                            "system": "http://www.icanbwell.com/cql/libraryVersion",
                            "code": "1.0.0"
                        },
                        {
                            "id": "977380c4-aca5-57a2-9eab-03eea0c1941d",
                            "system": "http://www.icanbwell.com/cql/rule",
                            "code": "InAgeCohort"
                        }
                    ]
                },
                "subject": {
                    "extension": [
                        {
                            "id": "sourceId",
                            "url": "https://www.icanbwell.com/sourceId",
                            "valueString": "Patient/bb7862e6-b7ac-470e-bde3-e85cee9d1ce7"
                        },
                        {
                            "id": "uuid",
                            "url": "https://www.icanbwell.com/uuid",
                            "valueString": "Patient/bb7862e6-b7ac-470e-bde3-e85cee9d1ce7"
                        },
                        {
                            "id": "sourceAssigningAuthority",
                            "url": "https://www.icanbwell.com/sourceAssigningAuthority",
                            "valueString": "health-service"
                        }
                    ],
                    "reference": "Patient/bb7862e6-b7ac-470e-bde3-e85cee9d1ce7"
                },
                "effectivePeriod": {
                    "start": "2021-01-01T00:00:00.000Z",
                    "end": "2021-12-31T00:00:00.000Z"
                },
                "issued": "2021-01-01T12:00:00.000Z",
                "valueBoolean": false
            }
        },
        {
            "id": "bb7862e6-b7ac-470e-bde3-e85cee9d1ce8",
            "resource": {
                "resourceType": "Patient",
                "id": "bb7862e6-b7ac-470e-bde3-e85cee9d1ce8",
                "meta": {
                    "versionId": "1",
                    "lastUpdated": "2023-12-22T20:30:04.000Z",
                    "source": "health-service-1",
                    "security": [
                        {
                            "system": "https://www.icanbwell.com/access",
                            "id": "ec50154d-bc48-5696-aaf4-018e8f72c416",
                            "code": "health-service-1"
                        },
                        {
                            "system": "https://www.icanbwell.com/owner",
                            "id": "342247a5-4bcd-57bc-af00-1a0db58cdeda",
                            "code": "health-service-1"
                        },
                        {
                            "system": "https://www.icanbwell.com/connectionType",
                            "id": "2ddb7b9d-413a-59ba-abb6-65774d005ed9",
                            "code": "proa"
                        },
                        {
                            "system": "https://www.icanbwell.com/sourceAssigningAuthority",
                            "id": "fb9a3f13-e35b-53bb-87e9-72bbbd125add",
                            "code": "health-service-1"
                        }
                    ]
                },
                "identifier": [
                    {
                        "id": "sourceId",
                        "system": "https://www.icanbwell.com/sourceId",
                        "value": "bb7862e6-b7ac-470e-bde3-e85cee9d1ce8"
                    },
                    {
                        "id": "uuid",
                        "system": "https://www.icanbwell.com/uuid",
                        "value": "bb7862e6-b7ac-470e-bde3-e85cee9d1ce8"
                    }
                ],
                "name": [
                    {
                        "use": "usual",
                        "text": "t",
                        "family": "PATIENT1",
                        "given": [
                            "SHYLA"
                        ]
                    }
                ],
                "gender": "female",
                "birthDate": "2017-01-01"
            }
        },
        {
            "id": "b59f86b9-5307-506a-bb6c-3eb555ace5o2",
            "resource": {
                "resourceType": "Observation",
                "id": "b59f86b9-5307-506a-bb6c-3eb555ace5o2",
                "meta": {
                    "versionId": "1",
                    "lastUpdated": "2023-12-22T20:31:14.000Z",
                    "source": "/patients",
                    "security": [
                        {
                            "system": "https://www.icanbwell.com/owner",
                            "id": "342247a5-4bcd-57bc-af00-1a0db58cdeda",
                            "code": "health-service-1"
                        },
                        {
                            "system": "https://www.icanbwell.com/access",
                            "id": "ec50154d-bc48-5696-aaf4-018e8f72c416",
                            "code": "health-service-1"
                        },
                        {
                            "system": "https://www.icanbwell.com/vendor",
                            "id": "a8b462c4-eab3-51cb-92b4-8618e14bbe06",
                            "code": "health-service-1"
                        },
                        {
                            "system": "https://www.icanbwell.com/connectionType",
                            "id": "2ddb7b9d-413a-59ba-abb6-65774d005ed9",
                            "code": "proa"
                        },
                        {
                            "system": "https://www.icanbwell.com/sourceAssigningAuthority",
                            "id": "fb9a3f13-e35b-53bb-87e9-72bbbd125add",
                            "code": "health-service-1"
                        }
                    ]
                },
                "identifier": [
                    {
                        "id": "sourceId",
                        "system": "https://www.icanbwell.com/sourceId",
                        "value": "b59f86b9-5307-506a-bb6c-3eb555ace5o2"
                    },
                    {
                        "id": "uuid",
                        "system": "https://www.icanbwell.com/uuid",
                        "value": "87a16982-ea4c-5008-9981-3f1470bd254f"
                    }
                ],
                "status": "final",
                "code": {
                    "coding": [
                        {
                            "id": "62186514-8c23-5680-85fd-b6898c99eacb",
                            "system": "http://www.icanbwell.com/cql/library",
                            "code": "BMI001"
                        },
                        {
                            "id": "77b3739c-725f-5833-a93e-cce825fb7b4a",
                            "system": "http://www.icanbwell.com/cql/libraryVersion",
                            "code": "1.0.0"
                        },
                        {
                            "id": "977380c4-aca5-57a2-9eab-03eea0c1941d",
                            "system": "http://www.icanbwell.com/cql/rule",
                            "code": "InAgeCohort"
                        }
                    ]
                },
                "subject": {
                    "extension": [
                        {
                            "id": "sourceId",
                            "url": "https://www.icanbwell.com/sourceId",
                            "valueString": "Patient/bb7862e6-b7ac-470e-bde3-e85cee9d1ce8"
                        },
                        {
                            "id": "uuid",
                            "url": "https://www.icanbwell.com/uuid",
                            "valueString": "Patient/bb7862e6-b7ac-470e-bde3-e85cee9d1ce8"
                        },
                        {
                            "id": "sourceAssigningAuthority",
                            "url": "https://www.icanbwell.com/sourceAssigningAuthority",
                            "valueString": "health-service-1"
                        }
                    ],
                    "reference": "Patient/bb7862e6-b7ac-470e-bde3-e85cee9d1ce8"
                },
                "effectivePeriod": {
                    "start": "2021-01-01T00:00:00.000Z",
                    "end": "2021-12-31T00:00:00.000Z"
                },
                "issued": "2021-01-01T12:00:00.000Z",
                "valueBoolean": false
            }
        }
    ],
    "resourceType": "Bundle",
    "type": "searchset",
    "timestamp": "2023-12-21T05:53:25.2525Z",
    "total": 10,
    "link": [
        {
            "relation": "self",
            "url": "http://localhost:3000/4_0_0/Person/c12345/$everything"
        }
    ],
    "meta": {
    "tag": [
      {
        "system": "https://www.icanbwell.com/query",
        "display": "db.Patient_4_0_0.find({'$or':[{'$and':[{'$or':[{'_uuid':{'$in':['bb7862e6-b7ac-470e-bde3-e85cee9d1ce6','bb7862e6-b7ac-470e-bde3-e85cee9d1ce7','bb7862e6-b7ac-470e-bde3-e85cee9d1ce8','d4c639de-f892-5b89-a63c-f64f0f2d69d1']}},{'_sourceId':'person.c12345'}]},{'meta.security':{'$elemMatch':{'system':'https://www.icanbwell.com/access','code':'client'}}}]},{'$and':[{'_uuid':{'$in':['bb7862e6-b7ac-470e-bde3-e85cee9d1ce7','bb7862e6-b7ac-470e-bde3-e85cee9d1ce8']}},{'meta.security':{'$elemMatch':{'system':'https://www.icanbwell.com/connectionType','code':'proa'}}}]},{'$and':[{'_uuid':'d4c639de-f892-5b89-a63c-f64f0f2d69d1'},{'meta.security':{'$elemMatch':{'system':'https://www.icanbwell.com/connectionType','code':'hipaa'}}}]}]}, {'_id':0})  | db.Account_4_0_0.find({'$or':[{'$and':[{'$or':[{'subject._uuid':{'$in':['Patient/bb7862e6-b7ac-470e-bde3-e85cee9d1ce6','Patient/bb7862e6-b7ac-470e-bde3-e85cee9d1ce7','Patient/bb7862e6-b7ac-470e-bde3-e85cee9d1ce8','Patient/d4c639de-f892-5b89-a63c-f64f0f2d69d1']}},{'subject._sourceId':'Patient/person.c12345'}]},{'meta.tag':{'$not':{'$elemMatch':{'system':'https://fhir.icanbwell.com/4_0_0/CodeSystem/server-behavior','code':'hidden'}}}},{'meta.security':{'$elemMatch':{'system':'https://www.icanbwell.com/access','code':'client'}}}]},{'$and':[{'meta.security':{'$elemMatch':{'system':'https://www.icanbwell.com/connectionType','code':'proa'}}},{'subject._uuid':{'$in':['Patient/bb7862e6-b7ac-470e-bde3-e85cee9d1ce7','Patient/bb7862e6-b7ac-470e-bde3-e85cee9d1ce8']}},{'meta.tag':{'$not':{'$elemMatch':{'system':'https://fhir.icanbwell.com/4_0_0/CodeSystem/server-behavior','code':'hidden'}}}}]},{'$and':[{'meta.security':{'$elemMatch':{'system':'https://www.icanbwell.com/connectionType','code':'hipaa'}}},{'subject._uuid':'Patient/d4c639de-f892-5b89-a63c-f64f0f2d69d1'},{'meta.tag':{'$not':{'$elemMatch':{'system':'https://fhir.icanbwell.com/4_0_0/CodeSystem/server-behavior','code':'hidden'}}}}]}]}, {'_id':0}) | db.AdverseEvent_4_0_0.find({'$or':[{'$and':[{'$or':[{'subject._uuid':{'$in':['Patient/bb7862e6-b7ac-470e-bde3-e85cee9d1ce6','Patient/bb7862e6-b7ac-470e-bde3-e85cee9d1ce7','Patient/bb7862e6-b7ac-470e-bde3-e85cee9d1ce8','Patient/d4c639de-f892-5b89-a63c-f64f0f2d69d1']}},{'subject._sourceId':'Patient/person.c12345'}]},{'meta.tag':{'$not':{'$elemMatch':{'system':'https://fhir.icanbwell.com/4_0_0/CodeSystem/server-behavior','code':'hidden'}}}},{'meta.security':{'$elemMatch':{'system':'https://www.icanbwell.com/access','code':'client'}}}]},{'$and':[{'meta.security':{'$elemMatch':{'system':'https://www.icanbwell.com/connectionType','code':'proa'}}},{'subject._uuid':{'$in':['Patient/bb7862e6-b7ac-470e-bde3-e85cee9d1ce7','Patient/bb7862e6-b7ac-470e-bde3-e85cee9d1ce8']}},{'meta.tag':{'$not':{'$elemMatch':{'system':'https://fhir.icanbwell.com/4_0_0/CodeSystem/server-behavior','code':'hidden'}}}}]},{'$and':[{'meta.security':{'$elemMatch':{'system':'https://www.icanbwell.com/connectionType','code':'hipaa'}}},{'subject._uuid':'Patient/d4c639de-f892-5b89-a63c-f64f0f2d69d1'},{'meta.tag':{'$not':{'$elemMatch':{'system':'https://fhir.icanbwell.com/4_0_0/CodeSystem/server-behavior','code':'hidden'}}}}]}]}, {'_id':0}) | db.AllergyIntolerance_4_0_0.find({'$or':[{'$and':[{'$or':[{'patient._uuid':{'$in':['Patient/bb7862e6-b7ac-470e-bde3-e85cee9d1ce6','Patient/bb7862e6-b7ac-470e-bde3-e85cee9d1ce7','Patient/bb7862e6-b7ac-470e-bde3-e85cee9d1ce8','Patient/d4c639de-f892-5b89-a63c-f64f0f2d69d1']}},{'patient._sourceId':'Patient/person.c12345'}]},{'meta.tag':{'$not':{'$elemMatch':{'system':'https://fhir.icanbwell.com/4_0_0/CodeSystem/server-behavior','code':'hidden'}}}},{'meta.security':{'$elemMatch':{'system':'https://www.icanbwell.com/access','code':'client'}}}]},{'$and':[{'meta.security':{'$elemMatch':{'system':'https://www.icanbwell.com/connectionType','code':'proa'}}},{'patient._uuid':{'$in':['Patient/bb7862e6-b7ac-470e-bde3-e85cee9d1ce7','Patient/bb7862e6-b7ac-470e-bde3-e85cee9d1ce8']}},{'meta.tag':{'$not':{'$elemMatch':{'system':'https://fhir.icanbwell.com/4_0_0/CodeSystem/server-behavior','code':'hidden'}}}}]},{'$and':[{'meta.security':{'$elemMatch':{'system':'https://www.icanbwell.com/connectionType','code':'hipaa'}}},{'patient._uuid':'Patient/d4c639de-f892-5b89-a63c-f64f0f2d69d1'},{'meta.tag':{'$not':{'$elemMatch':{'system':'https://fhir.icanbwell.com/4_0_0/CodeSystem/server-behavior','code':'hidden'}}}}]}]}, {'_id':0}) | db.Appointment_4_0_0.find({'$or':[{'$and':[{'$or':[{'participant.actor._uuid':{'$in':['Patient/bb7862e6-b7ac-470e-bde3-e85cee9d1ce6','Patient/bb7862e6-b7ac-470e-bde3-e85cee9d1ce7','Patient/bb7862e6-b7ac-470e-bde3-e85cee9d1ce8','Patient/d4c639de-f892-5b89-a63c-f64f0f2d69d1']}},{'participant.actor._sourceId':'Patient/person.c12345'}]},{'meta.tag':{'$not':{'$elemMatch':{'system':'https://fhir.icanbwell.com/4_0_0/CodeSystem/server-behavior','code':'hidden'}}}},{'meta.security':{'$elemMatch':{'system':'https://www.icanbwell.com/access','code':'client'}}}]},{'$and':[{'meta.security':{'$elemMatch':{'system':'https://www.icanbwell.com/connectionType','code':'proa'}}},{'participant.actor._uuid':{'$in':['Patient/bb7862e6-b7ac-470e-bde3-e85cee9d1ce7','Patient/bb7862e6-b7ac-470e-bde3-e85cee9d1ce8']}},{'meta.tag':{'$not':{'$elemMatch':{'system':'https://fhir.icanbwell.com/4_0_0/CodeSystem/server-behavior','code':'hidden'}}}}]},{'$and':[{'meta.security':{'$elemMatch':{'system':'https://www.icanbwell.com/connectionType','code':'hipaa'}}},{'participant.actor._uuid':'Patient/d4c639de-f892-5b89-a63c-f64f0f2d69d1'},{'meta.tag':{'$not':{'$elemMatch':{'system':'https://fhir.icanbwell.com/4_0_0/CodeSystem/server-behavior','code':'hidden'}}}}]}]}, {'_id':0}) | db.AppointmentResponse_4_0_0.find({'$or':[{'$and':[{'$or':[{'actor._uuid':{'$in':['Patient/bb7862e6-b7ac-470e-bde3-e85cee9d1ce6','Patient/bb7862e6-b7ac-470e-bde3-e85cee9d1ce7','Patient/bb7862e6-b7ac-470e-bde3-e85cee9d1ce8','Patient/d4c639de-f892-5b89-a63c-f64f0f2d69d1']}},{'actor._sourceId':'Patient/person.c12345'}]},{'meta.tag':{'$not':{'$elemMatch':{'system':'https://fhir.icanbwell.com/4_0_0/CodeSystem/server-behavior','code':'hidden'}}}},{'meta.security':{'$elemMatch':{'system':'https://www.icanbwell.com/access','code':'client'}}}]},{'$and':[{'meta.security':{'$elemMatch':{'system':'https://www.icanbwell.com/connectionType','code':'proa'}}},{'actor._uuid':{'$in':['Patient/bb7862e6-b7ac-470e-bde3-e85cee9d1ce7','Patient/bb7862e6-b7ac-470e-bde3-e85cee9d1ce8']}},{'meta.tag':{'$not':{'$elemMatch':{'system':'https://fhir.icanbwell.com/4_0_0/CodeSystem/server-behavior','code':'hidden'}}}}]},{'$and':[{'meta.security':{'$elemMatch':{'system':'https://www.icanbwell.com/connectionType','code':'hipaa'}}},{'actor._uuid':'Patient/d4c639de-f892-5b89-a63c-f64f0f2d69d1'},{'meta.tag':{'$not':{'$elemMatch':{'system':'https://fhir.icanbwell.com/4_0_0/CodeSystem/server-behavior','code':'hidden'}}}}]}]}, {'_id':0}) | db.BiologicallyDerivedProduct_4_0_0.find({'$or':[{'$and':[{'meta.tag':{'$not':{'$elemMatch':{'system':'https://fhir.icanbwell.com/4_0_0/CodeSystem/server-behavior','code':'hidden'}}}},{'meta.security':{'$elemMatch':{'system':'https://www.icanbwell.com/access','code':'client'}}}]},{'$and':[{'meta.tag':{'$not':{'$elemMatch':{'system':'https://fhir.icanbwell.com/4_0_0/CodeSystem/server-behavior','code':'hidden'}}}},{'meta.security':{'$elemMatch':{'system':'https://www.icanbwell.com/connectionType','code':'proa'}}}]},{'$and':[{'meta.tag':{'$not':{'$elemMatch':{'system':'https://fhir.icanbwell.com/4_0_0/CodeSystem/server-behavior','code':'hidden'}}}},{'meta.security':{'$elemMatch':{'system':'https://www.icanbwell.com/connectionType','code':'hipaa'}}}]},{'collection.source._uuid':'Patient/bb7862e6-b7ac-470e-bde3-e85cee9d1ce6'},{'collection.source._uuid':'Patient/bb7862e6-b7ac-470e-bde3-e85cee9d1ce7'},{'collection.source._uuid':'Patient/bb7862e6-b7ac-470e-bde3-e85cee9d1ce8'},{'collection.source._uuid':'Patient/d4c639de-f892-5b89-a63c-f64f0f2d69d1'},{'collection.source._sourceId':'Patient/person.c12345'}]}, {'_id':0}) | db.Basic_4_0_0.find({'$or':[{'$and':[{'$or':[{'subject._uuid':{'$in':['Patient/bb7862e6-b7ac-470e-bde3-e85cee9d1ce6','Patient/bb7862e6-b7ac-470e-bde3-e85cee9d1ce7','Patient/bb7862e6-b7ac-470e-bde3-e85cee9d1ce8','Patient/d4c639de-f892-5b89-a63c-f64f0f2d69d1']}},{'subject._sourceId':'Patient/person.c12345'}]},{'meta.tag':{'$not':{'$elemMatch':{'system':'https://fhir.icanbwell.com/4_0_0/CodeSystem/server-behavior','code':'hidden'}}}},{'meta.security':{'$elemMatch':{'system':'https://www.icanbwell.com/access','code':'client'}}}]},{'$and':[{'meta.security':{'$elemMatch':{'system':'https://www.icanbwell.com/connectionType','code':'proa'}}},{'subject._uuid':{'$in':['Patient/bb7862e6-b7ac-470e-bde3-e85cee9d1ce7','Patient/bb7862e6-b7ac-470e-bde3-e85cee9d1ce8']}},{'meta.tag':{'$not':{'$elemMatch':{'system':'https://fhir.icanbwell.com/4_0_0/CodeSystem/server-behavior','code':'hidden'}}}}]},{'$and':[{'meta.security':{'$elemMatch':{'system':'https://www.icanbwell.com/connectionType','code':'hipaa'}}},{'subject._uuid':'Patient/d4c639de-f892-5b89-a63c-f64f0f2d69d1'},{'meta.tag':{'$not':{'$elemMatch':{'system':'https://fhir.icanbwell.com/4_0_0/CodeSystem/server-behavior','code':'hidden'}}}}]}]}, {'_id':0}) | db.BodyStructure_4_0_0.find({'$or':[{'$and':[{'$or':[{'patient._uuid':{'$in':['Patient/bb7862e6-b7ac-470e-bde3-e85cee9d1ce6','Patient/bb7862e6-b7ac-470e-bde3-e85cee9d1ce7','Patient/bb7862e6-b7ac-470e-bde3-e85cee9d1ce8','Patient/d4c639de-f892-5b89-a63c-f64f0f2d69d1']}},{'patient._sourceId':'Patient/person.c12345'}]},{'meta.tag':{'$not':{'$elemMatch':{'system':'https://fhir.icanbwell.com/4_0_0/CodeSystem/server-behavior','code':'hidden'}}}},{'meta.security':{'$elemMatch':{'system':'https://www.icanbwell.com/access','code':'client'}}}]},{'$and':[{'meta.security':{'$elemMatch':{'system':'https://www.icanbwell.com/connectionType','code':'proa'}}},{'patient._uuid':{'$in':['Patient/bb7862e6-b7ac-470e-bde3-e85cee9d1ce7','Patient/bb7862e6-b7ac-470e-bde3-e85cee9d1ce8']}},{'meta.tag':{'$not':{'$elemMatch':{'system':'https://fhir.icanbwell.com/4_0_0/CodeSystem/server-behavior','code':'hidden'}}}}]},{'$and':[{'meta.security':{'$elemMatch':{'system':'https://www.icanbwell.com/connectionType','code':'hipaa'}}},{'patient._uuid':'Patient/d4c639de-f892-5b89-a63c-f64f0f2d69d1'},{'meta.tag':{'$not':{'$elemMatch':{'system':'https://fhir.icanbwell.com/4_0_0/CodeSystem/server-behavior','code':'hidden'}}}}]}]}, {'_id':0}) | db.CarePlan_4_0_0.find({'$or':[{'$and':[{'$or':[{'subject._uuid':{'$in':['Patient/bb7862e6-b7ac-470e-bde3-e85cee9d1ce6','Patient/bb7862e6-b7ac-470e-bde3-e85cee9d1ce7','Patient/bb7862e6-b7ac-470e-bde3-e85cee9d1ce8','Patient/d4c639de-f892-5b89-a63c-f64f0f2d69d1']}},{'subject._sourceId':'Patient/person.c12345'}]},{'meta.tag':{'$not':{'$elemMatch':{'system':'https://fhir.icanbwell.com/4_0_0/CodeSystem/server-behavior','code':'hidden'}}}},{'meta.security':{'$elemMatch':{'system':'https://www.icanbwell.com/access','code':'client'}}}]},{'$and':[{'meta.security':{'$elemMatch':{'system':'https://www.icanbwell.com/connectionType','code':'proa'}}},{'subject._uuid':{'$in':['Patient/bb7862e6-b7ac-470e-bde3-e85cee9d1ce7','Patient/bb7862e6-b7ac-470e-bde3-e85cee9d1ce8']}},{'meta.tag':{'$not':{'$elemMatch':{'system':'https://fhir.icanbwell.com/4_0_0/CodeSystem/server-behavior','code':'hidden'}}}}]},{'$and':[{'meta.security':{'$elemMatch':{'system':'https://www.icanbwell.com/connectionType','code':'hipaa'}}},{'subject._uuid':'Patient/d4c639de-f892-5b89-a63c-f64f0f2d69d1'},{'meta.tag':{'$not':{'$elemMatch':{'system':'https://fhir.icanbwell.com/4_0_0/CodeSystem/server-behavior','code':'hidden'}}}}]}]}, {'_id':0}) | db.CareTeam_4_0_0.find({'$or':[{'$and':[{'$or':[{'subject._uuid':{'$in':['Patient/bb7862e6-b7ac-470e-bde3-e85cee9d1ce6','Patient/bb7862e6-b7ac-470e-bde3-e85cee9d1ce7','Patient/bb7862e6-b7ac-470e-bde3-e85cee9d1ce8','Patient/d4c639de-f892-5b89-a63c-f64f0f2d69d1']}},{'subject._sourceId':'Patient/person.c12345'}]},{'meta.tag':{'$not':{'$elemMatch':{'system':'https://fhir.icanbwell.com/4_0_0/CodeSystem/server-behavior','code':'hidden'}}}},{'meta.security':{'$elemMatch':{'system':'https://www.icanbwell.com/access','code':'client'}}}]},{'$and':[{'meta.security':{'$elemMatch':{'system':'https://www.icanbwell.com/connectionType','code':'proa'}}},{'subject._uuid':{'$in':['Patient/bb7862e6-b7ac-470e-bde3-e85cee9d1ce7','Patient/bb7862e6-b7ac-470e-bde3-e85cee9d1ce8']}},{'meta.tag':{'$not':{'$elemMatch':{'system':'https://fhir.icanbwell.com/4_0_0/CodeSystem/server-behavior','code':'hidden'}}}}]},{'$and':[{'meta.security':{'$elemMatch':{'system':'https://www.icanbwell.com/connectionType','code':'hipaa'}}},{'subject._uuid':'Patient/d4c639de-f892-5b89-a63c-f64f0f2d69d1'},{'meta.tag':{'$not':{'$elemMatch':{'system':'https://fhir.icanbwell.com/4_0_0/CodeSystem/server-behavior','code':'hidden'}}}}]}]}, {'_id':0}) | db.ChargeItem_4_0_0.find({'$or':[{'$and':[{'$or':[{'subject._uuid':{'$in':['Patient/bb7862e6-b7ac-470e-bde3-e85cee9d1ce6','Patient/bb7862e6-b7ac-470e-bde3-e85cee9d1ce7','Patient/bb7862e6-b7ac-470e-bde3-e85cee9d1ce8','Patient/d4c639de-f892-5b89-a63c-f64f0f2d69d1']}},{'subject._sourceId':'Patient/person.c12345'}]},{'meta.tag':{'$not':{'$elemMatch':{'system':'https://fhir.icanbwell.com/4_0_0/CodeSystem/server-behavior','code':'hidden'}}}},{'meta.security':{'$elemMatch':{'system':'https://www.icanbwell.com/access','code':'client'}}}]},{'$and':[{'meta.security':{'$elemMatch':{'system':'https://www.icanbwell.com/connectionType','code':'proa'}}},{'subject._uuid':{'$in':['Patient/bb7862e6-b7ac-470e-bde3-e85cee9d1ce7','Patient/bb7862e6-b7ac-470e-bde3-e85cee9d1ce8']}},{'meta.tag':{'$not':{'$elemMatch':{'system':'https://fhir.icanbwell.com/4_0_0/CodeSystem/server-behavior','code':'hidden'}}}}]},{'$and':[{'meta.security':{'$elemMatch':{'system':'https://www.icanbwell.com/connectionType','code':'hipaa'}}},{'subject._uuid':'Patient/d4c639de-f892-5b89-a63c-f64f0f2d69d1'},{'meta.tag':{'$not':{'$elemMatch':{'system':'https://fhir.icanbwell.com/4_0_0/CodeSystem/server-behavior','code':'hidden'}}}}]}]}, {'_id':0}) | db.Claim_4_0_0.find({'$or':[{'$and':[{'$or':[{'patient._uuid':{'$in':['Patient/bb7862e6-b7ac-470e-bde3-e85cee9d1ce6','Patient/bb7862e6-b7ac-470e-bde3-e85cee9d1ce7','Patient/bb7862e6-b7ac-470e-bde3-e85cee9d1ce8','Patient/d4c639de-f892-5b89-a63c-f64f0f2d69d1']}},{'patient._sourceId':'Patient/person.c12345'}]},{'meta.tag':{'$not':{'$elemMatch':{'system':'https://fhir.icanbwell.com/4_0_0/CodeSystem/server-behavior','code':'hidden'}}}},{'meta.security':{'$elemMatch':{'system':'https://www.icanbwell.com/access','code':'client'}}}]},{'$and':[{'meta.security':{'$elemMatch':{'system':'https://www.icanbwell.com/connectionType','code':'proa'}}},{'patient._uuid':{'$in':['Patient/bb7862e6-b7ac-470e-bde3-e85cee9d1ce7','Patient/bb7862e6-b7ac-470e-bde3-e85cee9d1ce8']}},{'meta.tag':{'$not':{'$elemMatch':{'system':'https://fhir.icanbwell.com/4_0_0/CodeSystem/server-behavior','code':'hidden'}}}}]},{'$and':[{'meta.security':{'$elemMatch':{'system':'https://www.icanbwell.com/connectionType','code':'hipaa'}}},{'patient._uuid':'Patient/d4c639de-f892-5b89-a63c-f64f0f2d69d1'},{'meta.tag':{'$not':{'$elemMatch':{'system':'https://fhir.icanbwell.com/4_0_0/CodeSystem/server-behavior','code':'hidden'}}}}]}]}, {'_id':0}) | db.ClaimResponse_4_0_0.find({'$or':[{'$and':[{'$or':[{'patient._uuid':{'$in':['Patient/bb7862e6-b7ac-470e-bde3-e85cee9d1ce6','Patient/bb7862e6-b7ac-470e-bde3-e85cee9d1ce7','Patient/bb7862e6-b7ac-470e-bde3-e85cee9d1ce8','Patient/d4c639de-f892-5b89-a63c-f64f0f2d69d1']}},{'patient._sourceId':'Patient/person.c12345'}]},{'meta.tag':{'$not':{'$elemMatch':{'system':'https://fhir.icanbwell.com/4_0_0/CodeSystem/server-behavior','code':'hidden'}}}},{'meta.security':{'$elemMatch':{'system':'https://www.icanbwell.com/access','code':'client'}}}]},{'$and':[{'meta.security':{'$elemMatch':{'system':'https://www.icanbwell.com/connectionType','code':'proa'}}},{'patient._uuid':{'$in':['Patient/bb7862e6-b7ac-470e-bde3-e85cee9d1ce7','Patient/bb7862e6-b7ac-470e-bde3-e85cee9d1ce8']}},{'meta.tag':{'$not':{'$elemMatch':{'system':'https://fhir.icanbwell.com/4_0_0/CodeSystem/server-behavior','code':'hidden'}}}}]},{'$and':[{'meta.security':{'$elemMatch':{'system':'https://www.icanbwell.com/connectionType','code':'hipaa'}}},{'patient._uuid':'Patient/d4c639de-f892-5b89-a63c-f64f0f2d69d1'},{'meta.tag':{'$not':{'$elemMatch':{'system':'https://fhir.icanbwell.com/4_0_0/CodeSystem/server-behavior','code':'hidden'}}}}]}]}, {'_id':0}) | db.ClinicalImpression_4_0_0.find({'$or':[{'$and':[{'$or':[{'subject._uuid':{'$in':['Patient/bb7862e6-b7ac-470e-bde3-e85cee9d1ce6','Patient/bb7862e6-b7ac-470e-bde3-e85cee9d1ce7','Patient/bb7862e6-b7ac-470e-bde3-e85cee9d1ce8','Patient/d4c639de-f892-5b89-a63c-f64f0f2d69d1']}},{'subject._sourceId':'Patient/person.c12345'}]},{'meta.tag':{'$not':{'$elemMatch':{'system':'https://fhir.icanbwell.com/4_0_0/CodeSystem/server-behavior','code':'hidden'}}}},{'meta.security':{'$elemMatch':{'system':'https://www.icanbwell.com/access','code':'client'}}}]},{'$and':[{'meta.security':{'$elemMatch':{'system':'https://www.icanbwell.com/connectionType','code':'proa'}}},{'subject._uuid':{'$in':['Patient/bb7862e6-b7ac-470e-bde3-e85cee9d1ce7','Patient/bb7862e6-b7ac-470e-bde3-e85cee9d1ce8']}},{'meta.tag':{'$not':{'$elemMatch':{'system':'https://fhir.icanbwell.com/4_0_0/CodeSystem/server-behavior','code':'hidden'}}}}]},{'$and':[{'meta.security':{'$elemMatch':{'system':'https://www.icanbwell.com/connectionType','code':'hipaa'}}},{'subject._uuid':'Patient/d4c639de-f892-5b89-a63c-f64f0f2d69d1'},{'meta.tag':{'$not':{'$elemMatch':{'system':'https://fhir.icanbwell.com/4_0_0/CodeSystem/server-behavior','code':'hidden'}}}}]}]}, {'_id':0}) | db.Communication_4_0_0.find({'$or':[{'$and':[{'$or':[{'subject._uuid':{'$in':['Patient/bb7862e6-b7ac-470e-bde3-e85cee9d1ce6','Patient/bb7862e6-b7ac-470e-bde3-e85cee9d1ce7','Patient/bb7862e6-b7ac-470e-bde3-e85cee9d1ce8','Patient/d4c639de-f892-5b89-a63c-f64f0f2d69d1']}},{'subject._sourceId':'Patient/person.c12345'}]},{'meta.tag':{'$not':{'$elemMatch':{'system':'https://fhir.icanbwell.com/4_0_0/CodeSystem/server-behavior','code':'hidden'}}}},{'meta.security':{'$elemMatch':{'system':'https://www.icanbwell.com/access','code':'client'}}}]},{'$and':[{'meta.security':{'$elemMatch':{'system':'https://www.icanbwell.com/connectionType','code':'proa'}}},{'subject._uuid':{'$in':['Patient/bb7862e6-b7ac-470e-bde3-e85cee9d1ce7','Patient/bb7862e6-b7ac-470e-bde3-e85cee9d1ce8']}},{'meta.tag':{'$not':{'$elemMatch':{'system':'https://fhir.icanbwell.com/4_0_0/CodeSystem/server-behavior','code':'hidden'}}}}]},{'$and':[{'meta.security':{'$elemMatch':{'system':'https://www.icanbwell.com/connectionType','code':'hipaa'}}},{'subject._uuid':'Patient/d4c639de-f892-5b89-a63c-f64f0f2d69d1'},{'meta.tag':{'$not':{'$elemMatch':{'system':'https://fhir.icanbwell.com/4_0_0/CodeSystem/server-behavior','code':'hidden'}}}}]}]}, {'_id':0}) | db.CommunicationRequest_4_0_0.find({'$or':[{'$and':[{'$or':[{'subject._uuid':{'$in':['Patient/bb7862e6-b7ac-470e-bde3-e85cee9d1ce6','Patient/bb7862e6-b7ac-470e-bde3-e85cee9d1ce7','Patient/bb7862e6-b7ac-470e-bde3-e85cee9d1ce8','Patient/d4c639de-f892-5b89-a63c-f64f0f2d69d1']}},{'subject._sourceId':'Patient/person.c12345'}]},{'meta.tag':{'$not':{'$elemMatch':{'system':'https://fhir.icanbwell.com/4_0_0/CodeSystem/server-behavior','code':'hidden'}}}},{'meta.security':{'$elemMatch':{'system':'https://www.icanbwell.com/access','code':'client'}}}]},{'$and':[{'meta.security':{'$elemMatch':{'system':'https://www.icanbwell.com/connectionType','code':'proa'}}},{'subject._uuid':{'$in':['Patient/bb7862e6-b7ac-470e-bde3-e85cee9d1ce7','Patient/bb7862e6-b7ac-470e-bde3-e85cee9d1ce8']}},{'meta.tag':{'$not':{'$elemMatch':{'system':'https://fhir.icanbwell.com/4_0_0/CodeSystem/server-behavior','code':'hidden'}}}}]},{'$and':[{'meta.security':{'$elemMatch':{'system':'https://www.icanbwell.com/connectionType','code':'hipaa'}}},{'subject._uuid':'Patient/d4c639de-f892-5b89-a63c-f64f0f2d69d1'},{'meta.tag':{'$not':{'$elemMatch':{'system':'https://fhir.icanbwell.com/4_0_0/CodeSystem/server-behavior','code':'hidden'}}}}]}]}, {'_id':0}) | db.Composition_4_0_0.find({'$or':[{'$and':[{'$or':[{'subject._uuid':{'$in':['Patient/bb7862e6-b7ac-470e-bde3-e85cee9d1ce6','Patient/bb7862e6-b7ac-470e-bde3-e85cee9d1ce7','Patient/bb7862e6-b7ac-470e-bde3-e85cee9d1ce8','Patient/d4c639de-f892-5b89-a63c-f64f0f2d69d1']}},{'subject._sourceId':'Patient/person.c12345'}]},{'meta.tag':{'$not':{'$elemMatch':{'system':'https://fhir.icanbwell.com/4_0_0/CodeSystem/server-behavior','code':'hidden'}}}},{'meta.security':{'$elemMatch':{'system':'https://www.icanbwell.com/access','code':'client'}}}]},{'$and':[{'meta.security':{'$elemMatch':{'system':'https://www.icanbwell.com/connectionType','code':'proa'}}},{'subject._uuid':{'$in':['Patient/bb7862e6-b7ac-470e-bde3-e85cee9d1ce7','Patient/bb7862e6-b7ac-470e-bde3-e85cee9d1ce8']}},{'meta.tag':{'$not':{'$elemMatch':{'system':'https://fhir.icanbwell.com/4_0_0/CodeSystem/server-behavior','code':'hidden'}}}}]},{'$and':[{'meta.security':{'$elemMatch':{'system':'https://www.icanbwell.com/connectionType','code':'hipaa'}}},{'subject._uuid':'Patient/d4c639de-f892-5b89-a63c-f64f0f2d69d1'},{'meta.tag':{'$not':{'$elemMatch':{'system':'https://fhir.icanbwell.com/4_0_0/CodeSystem/server-behavior','code':'hidden'}}}}]}]}, {'_id':0}) | db.Condition_4_0_0.find({'$or':[{'$and':[{'$or':[{'subject._uuid':{'$in':['Patient/bb7862e6-b7ac-470e-bde3-e85cee9d1ce6','Patient/bb7862e6-b7ac-470e-bde3-e85cee9d1ce7','Patient/bb7862e6-b7ac-470e-bde3-e85cee9d1ce8','Patient/d4c639de-f892-5b89-a63c-f64f0f2d69d1']}},{'subject._sourceId':'Patient/person.c12345'}]},{'meta.tag':{'$not':{'$elemMatch':{'system':'https://fhir.icanbwell.com/4_0_0/CodeSystem/server-behavior','code':'hidden'}}}},{'meta.security':{'$elemMatch':{'system':'https://www.icanbwell.com/access','code':'client'}}}]},{'$and':[{'meta.security':{'$elemMatch':{'system':'https://www.icanbwell.com/connectionType','code':'proa'}}},{'subject._uuid':{'$in':['Patient/bb7862e6-b7ac-470e-bde3-e85cee9d1ce7','Patient/bb7862e6-b7ac-470e-bde3-e85cee9d1ce8']}},{'meta.tag':{'$not':{'$elemMatch':{'system':'https://fhir.icanbwell.com/4_0_0/CodeSystem/server-behavior','code':'hidden'}}}}]},{'$and':[{'meta.security':{'$elemMatch':{'system':'https://www.icanbwell.com/connectionType','code':'hipaa'}}},{'subject._uuid':'Patient/d4c639de-f892-5b89-a63c-f64f0f2d69d1'},{'meta.tag':{'$not':{'$elemMatch':{'system':'https://fhir.icanbwell.com/4_0_0/CodeSystem/server-behavior','code':'hidden'}}}}]}]}, {'_id':0}) | db.Consent_4_0_0.find({'$or':[{'$and':[{'$or':[{'patient._uuid':{'$in':['Patient/bb7862e6-b7ac-470e-bde3-e85cee9d1ce6','Patient/bb7862e6-b7ac-470e-bde3-e85cee9d1ce7','Patient/bb7862e6-b7ac-470e-bde3-e85cee9d1ce8','Patient/d4c639de-f892-5b89-a63c-f64f0f2d69d1']}},{'patient._sourceId':'Patient/person.c12345'}]},{'meta.tag':{'$not':{'$elemMatch':{'system':'https://fhir.icanbwell.com/4_0_0/CodeSystem/server-behavior','code':'hidden'}}}},{'meta.security':{'$elemMatch':{'system':'https://www.icanbwell.com/access','code':'client'}}}]},{'$and':[{'meta.security':{'$elemMatch':{'system':'https://www.icanbwell.com/connectionType','code':'proa'}}},{'patient._uuid':{'$in':['Patient/bb7862e6-b7ac-470e-bde3-e85cee9d1ce7','Patient/bb7862e6-b7ac-470e-bde3-e85cee9d1ce8']}},{'meta.tag':{'$not':{'$elemMatch':{'system':'https://fhir.icanbwell.com/4_0_0/CodeSystem/server-behavior','code':'hidden'}}}}]},{'$and':[{'meta.security':{'$elemMatch':{'system':'https://www.icanbwell.com/connectionType','code':'hipaa'}}},{'patient._uuid':'Patient/d4c639de-f892-5b89-a63c-f64f0f2d69d1'},{'meta.tag':{'$not':{'$elemMatch':{'system':'https://fhir.icanbwell.com/4_0_0/CodeSystem/server-behavior','code':'hidden'}}}}]}]}, {'_id':0}) | db.Contract_4_0_0.find({'$or':[{'$and':[{'$or':[{'subject._uuid':{'$in':['Patient/bb7862e6-b7ac-470e-bde3-e85cee9d1ce6','Patient/bb7862e6-b7ac-470e-bde3-e85cee9d1ce7','Patient/bb7862e6-b7ac-470e-bde3-e85cee9d1ce8','Patient/d4c639de-f892-5b89-a63c-f64f0f2d69d1']}},{'subject._sourceId':'Patient/person.c12345'}]},{'meta.tag':{'$not':{'$elemMatch':{'system':'https://fhir.icanbwell.com/4_0_0/CodeSystem/server-behavior','code':'hidden'}}}},{'meta.security':{'$elemMatch':{'system':'https://www.icanbwell.com/access','code':'client'}}}]},{'$and':[{'meta.security':{'$elemMatch':{'system':'https://www.icanbwell.com/connectionType','code':'proa'}}},{'subject._uuid':{'$in':['Patient/bb7862e6-b7ac-470e-bde3-e85cee9d1ce7','Patient/bb7862e6-b7ac-470e-bde3-e85cee9d1ce8']}},{'meta.tag':{'$not':{'$elemMatch':{'system':'https://fhir.icanbwell.com/4_0_0/CodeSystem/server-behavior','code':'hidden'}}}}]},{'$and':[{'meta.security':{'$elemMatch':{'system':'https://www.icanbwell.com/connectionType','code':'hipaa'}}},{'subject._uuid':'Patient/d4c639de-f892-5b89-a63c-f64f0f2d69d1'},{'meta.tag':{'$not':{'$elemMatch':{'system':'https://fhir.icanbwell.com/4_0_0/CodeSystem/server-behavior','code':'hidden'}}}}]}]}, {'_id':0}) | db.Coverage_4_0_0.find({'$or':[{'$and':[{'$or':[{'beneficiary._uuid':{'$in':['Patient/bb7862e6-b7ac-470e-bde3-e85cee9d1ce6','Patient/bb7862e6-b7ac-470e-bde3-e85cee9d1ce7','Patient/bb7862e6-b7ac-470e-bde3-e85cee9d1ce8','Patient/d4c639de-f892-5b89-a63c-f64f0f2d69d1']}},{'beneficiary._sourceId':'Patient/person.c12345'}]},{'meta.tag':{'$not':{'$elemMatch':{'system':'https://fhir.icanbwell.com/4_0_0/CodeSystem/server-behavior','code':'hidden'}}}},{'meta.security':{'$elemMatch':{'system':'https://www.icanbwell.com/access','code':'client'}}}]},{'$and':[{'meta.security':{'$elemMatch':{'system':'https://www.icanbwell.com/connectionType','code':'proa'}}},{'beneficiary._uuid':{'$in':['Patient/bb7862e6-b7ac-470e-bde3-e85cee9d1ce7','Patient/bb7862e6-b7ac-470e-bde3-e85cee9d1ce8']}},{'meta.tag':{'$not':{'$elemMatch':{'system':'https://fhir.icanbwell.com/4_0_0/CodeSystem/server-behavior','code':'hidden'}}}}]},{'$and':[{'meta.security':{'$elemMatch':{'system':'https://www.icanbwell.com/connectionType','code':'hipaa'}}},{'beneficiary._uuid':'Patient/d4c639de-f892-5b89-a63c-f64f0f2d69d1'},{'meta.tag':{'$not':{'$elemMatch':{'system':'https://fhir.icanbwell.com/4_0_0/CodeSystem/server-behavior','code':'hidden'}}}}]}]}, {'_id':0}) | db.CoverageEligibilityRequest_4_0_0.find({'$or':[{'$and':[{'$or':[{'patient._uuid':{'$in':['Patient/bb7862e6-b7ac-470e-bde3-e85cee9d1ce6','Patient/bb7862e6-b7ac-470e-bde3-e85cee9d1ce7','Patient/bb7862e6-b7ac-470e-bde3-e85cee9d1ce8','Patient/d4c639de-f892-5b89-a63c-f64f0f2d69d1']}},{'patient._sourceId':'Patient/person.c12345'}]},{'meta.tag':{'$not':{'$elemMatch':{'system':'https://fhir.icanbwell.com/4_0_0/CodeSystem/server-behavior','code':'hidden'}}}},{'meta.security':{'$elemMatch':{'system':'https://www.icanbwell.com/access','code':'client'}}}]},{'$and':[{'meta.security':{'$elemMatch':{'system':'https://www.icanbwell.com/connectionType','code':'proa'}}},{'patient._uuid':{'$in':['Patient/bb7862e6-b7ac-470e-bde3-e85cee9d1ce7','Patient/bb7862e6-b7ac-470e-bde3-e85cee9d1ce8']}},{'meta.tag':{'$not':{'$elemMatch':{'system':'https://fhir.icanbwell.com/4_0_0/CodeSystem/server-behavior','code':'hidden'}}}}]},{'$and':[{'meta.security':{'$elemMatch':{'system':'https://www.icanbwell.com/connectionType','code':'hipaa'}}},{'patient._uuid':'Patient/d4c639de-f892-5b89-a63c-f64f0f2d69d1'},{'meta.tag':{'$not':{'$elemMatch':{'system':'https://fhir.icanbwell.com/4_0_0/CodeSystem/server-behavior','code':'hidden'}}}}]}]}, {'_id':0}) | db.CoverageEligibilityResponse_4_0_0.find({'$or':[{'$and':[{'$or':[{'patient._uuid':{'$in':['Patient/bb7862e6-b7ac-470e-bde3-e85cee9d1ce6','Patient/bb7862e6-b7ac-470e-bde3-e85cee9d1ce7','Patient/bb7862e6-b7ac-470e-bde3-e85cee9d1ce8','Patient/d4c639de-f892-5b89-a63c-f64f0f2d69d1']}},{'patient._sourceId':'Patient/person.c12345'}]},{'meta.tag':{'$not':{'$elemMatch':{'system':'https://fhir.icanbwell.com/4_0_0/CodeSystem/server-behavior','code':'hidden'}}}},{'meta.security':{'$elemMatch':{'system':'https://www.icanbwell.com/access','code':'client'}}}]},{'$and':[{'meta.security':{'$elemMatch':{'system':'https://www.icanbwell.com/connectionType','code':'proa'}}},{'patient._uuid':{'$in':['Patient/bb7862e6-b7ac-470e-bde3-e85cee9d1ce7','Patient/bb7862e6-b7ac-470e-bde3-e85cee9d1ce8']}},{'meta.tag':{'$not':{'$elemMatch':{'system':'https://fhir.icanbwell.com/4_0_0/CodeSystem/server-behavior','code':'hidden'}}}}]},{'$and':[{'meta.security':{'$elemMatch':{'system':'https://www.icanbwell.com/connectionType','code':'hipaa'}}},{'patient._uuid':'Patient/d4c639de-f892-5b89-a63c-f64f0f2d69d1'},{'meta.tag':{'$not':{'$elemMatch':{'system':'https://fhir.icanbwell.com/4_0_0/CodeSystem/server-behavior','code':'hidden'}}}}]}]}, {'_id':0}) | db.DetectedIssue_4_0_0.find({'$or':[{'$and':[{'$or':[{'patient._uuid':{'$in':['Patient/bb7862e6-b7ac-470e-bde3-e85cee9d1ce6','Patient/bb7862e6-b7ac-470e-bde3-e85cee9d1ce7','Patient/bb7862e6-b7ac-470e-bde3-e85cee9d1ce8','Patient/d4c639de-f892-5b89-a63c-f64f0f2d69d1']}},{'patient._sourceId':'Patient/person.c12345'}]},{'meta.tag':{'$not':{'$elemMatch':{'system':'https://fhir.icanbwell.com/4_0_0/CodeSystem/server-behavior','code':'hidden'}}}},{'meta.security':{'$elemMatch':{'system':'https://www.icanbwell.com/access','code':'client'}}}]},{'$and':[{'meta.security':{'$elemMatch':{'system':'https://www.icanbwell.com/connectionType','code':'proa'}}},{'patient._uuid':{'$in':['Patient/bb7862e6-b7ac-470e-bde3-e85cee9d1ce7','Patient/bb7862e6-b7ac-470e-bde3-e85cee9d1ce8']}},{'meta.tag':{'$not':{'$elemMatch':{'system':'https://fhir.icanbwell.com/4_0_0/CodeSystem/server-behavior','code':'hidden'}}}}]},{'$and':[{'meta.security':{'$elemMatch':{'system':'https://www.icanbwell.com/connectionType','code':'hipaa'}}},{'patient._uuid':'Patient/d4c639de-f892-5b89-a63c-f64f0f2d69d1'},{'meta.tag':{'$not':{'$elemMatch':{'system':'https://fhir.icanbwell.com/4_0_0/CodeSystem/server-behavior','code':'hidden'}}}}]}]}, {'_id':0}) | db.Device_4_0_0.find({'$or':[{'$and':[{'$or':[{'patient._uuid':{'$in':['Patient/bb7862e6-b7ac-470e-bde3-e85cee9d1ce6','Patient/bb7862e6-b7ac-470e-bde3-e85cee9d1ce7','Patient/bb7862e6-b7ac-470e-bde3-e85cee9d1ce8','Patient/d4c639de-f892-5b89-a63c-f64f0f2d69d1']}},{'patient._sourceId':'Patient/person.c12345'}]},{'meta.tag':{'$not':{'$elemMatch':{'system':'https://fhir.icanbwell.com/4_0_0/CodeSystem/server-behavior','code':'hidden'}}}},{'meta.security':{'$elemMatch':{'system':'https://www.icanbwell.com/access','code':'client'}}}]},{'$and':[{'meta.security':{'$elemMatch':{'system':'https://www.icanbwell.com/connectionType','code':'proa'}}},{'patient._uuid':{'$in':['Patient/bb7862e6-b7ac-470e-bde3-e85cee9d1ce7','Patient/bb7862e6-b7ac-470e-bde3-e85cee9d1ce8']}},{'meta.tag':{'$not':{'$elemMatch':{'system':'https://fhir.icanbwell.com/4_0_0/CodeSystem/server-behavior','code':'hidden'}}}}]},{'$and':[{'meta.security':{'$elemMatch':{'system':'https://www.icanbwell.com/connectionType','code':'hipaa'}}},{'patient._uuid':'Patient/d4c639de-f892-5b89-a63c-f64f0f2d69d1'},{'meta.tag':{'$not':{'$elemMatch':{'system':'https://fhir.icanbwell.com/4_0_0/CodeSystem/server-behavior','code':'hidden'}}}}]}]}, {'_id':0}) | db.DeviceRequest_4_0_0.find({'$or':[{'$and':[{'$or':[{'subject._uuid':{'$in':['Patient/bb7862e6-b7ac-470e-bde3-e85cee9d1ce6','Patient/bb7862e6-b7ac-470e-bde3-e85cee9d1ce7','Patient/bb7862e6-b7ac-470e-bde3-e85cee9d1ce8','Patient/d4c639de-f892-5b89-a63c-f64f0f2d69d1']}},{'subject._sourceId':'Patient/person.c12345'}]},{'meta.tag':{'$not':{'$elemMatch':{'system':'https://fhir.icanbwell.com/4_0_0/CodeSystem/server-behavior','code':'hidden'}}}},{'meta.security':{'$elemMatch':{'system':'https://www.icanbwell.com/access','code':'client'}}}]},{'$and':[{'meta.security':{'$elemMatch':{'system':'https://www.icanbwell.com/connectionType','code':'proa'}}},{'subject._uuid':{'$in':['Patient/bb7862e6-b7ac-470e-bde3-e85cee9d1ce7','Patient/bb7862e6-b7ac-470e-bde3-e85cee9d1ce8']}},{'meta.tag':{'$not':{'$elemMatch':{'system':'https://fhir.icanbwell.com/4_0_0/CodeSystem/server-behavior','code':'hidden'}}}}]},{'$and':[{'meta.security':{'$elemMatch':{'system':'https://www.icanbwell.com/connectionType','code':'hipaa'}}},{'subject._uuid':'Patient/d4c639de-f892-5b89-a63c-f64f0f2d69d1'},{'meta.tag':{'$not':{'$elemMatch':{'system':'https://fhir.icanbwell.com/4_0_0/CodeSystem/server-behavior','code':'hidden'}}}}]}]}, {'_id':0}) | db.DeviceUseStatement_4_0_0.find({'$or':[{'$and':[{'$or':[{'subject._uuid':{'$in':['Patient/bb7862e6-b7ac-470e-bde3-e85cee9d1ce6','Patient/bb7862e6-b7ac-470e-bde3-e85cee9d1ce7','Patient/bb7862e6-b7ac-470e-bde3-e85cee9d1ce8','Patient/d4c639de-f892-5b89-a63c-f64f0f2d69d1']}},{'subject._sourceId':'Patient/person.c12345'}]},{'meta.tag':{'$not':{'$elemMatch':{'system':'https://fhir.icanbwell.com/4_0_0/CodeSystem/server-behavior','code':'hidden'}}}},{'meta.security':{'$elemMatch':{'system':'https://www.icanbwell.com/access','code':'client'}}}]},{'$and':[{'meta.security':{'$elemMatch':{'system':'https://www.icanbwell.com/connectionType','code':'proa'}}},{'subject._uuid':{'$in':['Patient/bb7862e6-b7ac-470e-bde3-e85cee9d1ce7','Patient/bb7862e6-b7ac-470e-bde3-e85cee9d1ce8']}},{'meta.tag':{'$not':{'$elemMatch':{'system':'https://fhir.icanbwell.com/4_0_0/CodeSystem/server-behavior','code':'hidden'}}}}]},{'$and':[{'meta.security':{'$elemMatch':{'system':'https://www.icanbwell.com/connectionType','code':'hipaa'}}},{'subject._uuid':'Patient/d4c639de-f892-5b89-a63c-f64f0f2d69d1'},{'meta.tag':{'$not':{'$elemMatch':{'system':'https://fhir.icanbwell.com/4_0_0/CodeSystem/server-behavior','code':'hidden'}}}}]}]}, {'_id':0}) | db.DiagnosticReport_4_0_0.find({'$or':[{'$and':[{'$or':[{'subject._uuid':{'$in':['Patient/bb7862e6-b7ac-470e-bde3-e85cee9d1ce6','Patient/bb7862e6-b7ac-470e-bde3-e85cee9d1ce7','Patient/bb7862e6-b7ac-470e-bde3-e85cee9d1ce8','Patient/d4c639de-f892-5b89-a63c-f64f0f2d69d1']}},{'subject._sourceId':'Patient/person.c12345'}]},{'meta.tag':{'$not':{'$elemMatch':{'system':'https://fhir.icanbwell.com/4_0_0/CodeSystem/server-behavior','code':'hidden'}}}},{'meta.security':{'$elemMatch':{'system':'https://www.icanbwell.com/access','code':'client'}}}]},{'$and':[{'meta.security':{'$elemMatch':{'system':'https://www.icanbwell.com/connectionType','code':'proa'}}},{'subject._uuid':{'$in':['Patient/bb7862e6-b7ac-470e-bde3-e85cee9d1ce7','Patient/bb7862e6-b7ac-470e-bde3-e85cee9d1ce8']}},{'meta.tag':{'$not':{'$elemMatch':{'system':'https://fhir.icanbwell.com/4_0_0/CodeSystem/server-behavior','code':'hidden'}}}}]},{'$and':[{'meta.security':{'$elemMatch':{'system':'https://www.icanbwell.com/connectionType','code':'hipaa'}}},{'subject._uuid':'Patient/d4c639de-f892-5b89-a63c-f64f0f2d69d1'},{'meta.tag':{'$not':{'$elemMatch':{'system':'https://fhir.icanbwell.com/4_0_0/CodeSystem/server-behavior','code':'hidden'}}}}]}]}, {'_id':0}) | db.DocumentManifest_4_0_0.find({'$or':[{'$and':[{'$or':[{'subject._uuid':{'$in':['Patient/bb7862e6-b7ac-470e-bde3-e85cee9d1ce6','Patient/bb7862e6-b7ac-470e-bde3-e85cee9d1ce7','Patient/bb7862e6-b7ac-470e-bde3-e85cee9d1ce8','Patient/d4c639de-f892-5b89-a63c-f64f0f2d69d1']}},{'subject._sourceId':'Patient/person.c12345'}]},{'meta.tag':{'$not':{'$elemMatch':{'system':'https://fhir.icanbwell.com/4_0_0/CodeSystem/server-behavior','code':'hidden'}}}},{'meta.security':{'$elemMatch':{'system':'https://www.icanbwell.com/access','code':'client'}}}]},{'$and':[{'meta.security':{'$elemMatch':{'system':'https://www.icanbwell.com/connectionType','code':'proa'}}},{'subject._uuid':{'$in':['Patient/bb7862e6-b7ac-470e-bde3-e85cee9d1ce7','Patient/bb7862e6-b7ac-470e-bde3-e85cee9d1ce8']}},{'meta.tag':{'$not':{'$elemMatch':{'system':'https://fhir.icanbwell.com/4_0_0/CodeSystem/server-behavior','code':'hidden'}}}}]},{'$and':[{'meta.security':{'$elemMatch':{'system':'https://www.icanbwell.com/connectionType','code':'hipaa'}}},{'subject._uuid':'Patient/d4c639de-f892-5b89-a63c-f64f0f2d69d1'},{'meta.tag':{'$not':{'$elemMatch':{'system':'https://fhir.icanbwell.com/4_0_0/CodeSystem/server-behavior','code':'hidden'}}}}]}]}, {'_id':0}) | db.DocumentReference_4_0_0.find({'$or':[{'$and':[{'$or':[{'subject._uuid':{'$in':['Patient/bb7862e6-b7ac-470e-bde3-e85cee9d1ce6','Patient/bb7862e6-b7ac-470e-bde3-e85cee9d1ce7','Patient/bb7862e6-b7ac-470e-bde3-e85cee9d1ce8','Patient/d4c639de-f892-5b89-a63c-f64f0f2d69d1']}},{'subject._sourceId':'Patient/person.c12345'}]},{'meta.tag':{'$not':{'$elemMatch':{'system':'https://fhir.icanbwell.com/4_0_0/CodeSystem/server-behavior','code':'hidden'}}}},{'meta.security':{'$elemMatch':{'system':'https://www.icanbwell.com/access','code':'client'}}}]},{'$and':[{'meta.security':{'$elemMatch':{'system':'https://www.icanbwell.com/connectionType','code':'proa'}}},{'subject._uuid':{'$in':['Patient/bb7862e6-b7ac-470e-bde3-e85cee9d1ce7','Patient/bb7862e6-b7ac-470e-bde3-e85cee9d1ce8']}},{'meta.tag':{'$not':{'$elemMatch':{'system':'https://fhir.icanbwell.com/4_0_0/CodeSystem/server-behavior','code':'hidden'}}}}]},{'$and':[{'meta.security':{'$elemMatch':{'system':'https://www.icanbwell.com/connectionType','code':'hipaa'}}},{'subject._uuid':'Patient/d4c639de-f892-5b89-a63c-f64f0f2d69d1'},{'meta.tag':{'$not':{'$elemMatch':{'system':'https://fhir.icanbwell.com/4_0_0/CodeSystem/server-behavior','code':'hidden'}}}}]}]}, {'_id':0}) | db.Encounter_4_0_0.find({'$or':[{'$and':[{'$or':[{'subject._uuid':{'$in':['Patient/bb7862e6-b7ac-470e-bde3-e85cee9d1ce6','Patient/bb7862e6-b7ac-470e-bde3-e85cee9d1ce7','Patient/bb7862e6-b7ac-470e-bde3-e85cee9d1ce8','Patient/d4c639de-f892-5b89-a63c-f64f0f2d69d1']}},{'subject._sourceId':'Patient/person.c12345'}]},{'meta.tag':{'$not':{'$elemMatch':{'system':'https://fhir.icanbwell.com/4_0_0/CodeSystem/server-behavior','code':'hidden'}}}},{'meta.security':{'$elemMatch':{'system':'https://www.icanbwell.com/access','code':'client'}}}]},{'$and':[{'meta.security':{'$elemMatch':{'system':'https://www.icanbwell.com/connectionType','code':'proa'}}},{'subject._uuid':{'$in':['Patient/bb7862e6-b7ac-470e-bde3-e85cee9d1ce7','Patient/bb7862e6-b7ac-470e-bde3-e85cee9d1ce8']}},{'meta.tag':{'$not':{'$elemMatch':{'system':'https://fhir.icanbwell.com/4_0_0/CodeSystem/server-behavior','code':'hidden'}}}}]},{'$and':[{'meta.security':{'$elemMatch':{'system':'https://www.icanbwell.com/connectionType','code':'hipaa'}}},{'subject._uuid':'Patient/d4c639de-f892-5b89-a63c-f64f0f2d69d1'},{'meta.tag':{'$not':{'$elemMatch':{'system':'https://fhir.icanbwell.com/4_0_0/CodeSystem/server-behavior','code':'hidden'}}}}]}]}, {'_id':0}) | db.EnrollmentRequest_4_0_0.find({'$or':[{'$and':[{'$or':[{'candidate._uuid':{'$in':['Patient/bb7862e6-b7ac-470e-bde3-e85cee9d1ce6','Patient/bb7862e6-b7ac-470e-bde3-e85cee9d1ce7','Patient/bb7862e6-b7ac-470e-bde3-e85cee9d1ce8','Patient/d4c639de-f892-5b89-a63c-f64f0f2d69d1']}},{'candidate._sourceId':'Patient/person.c12345'}]},{'meta.tag':{'$not':{'$elemMatch':{'system':'https://fhir.icanbwell.com/4_0_0/CodeSystem/server-behavior','code':'hidden'}}}},{'meta.security':{'$elemMatch':{'system':'https://www.icanbwell.com/access','code':'client'}}}]},{'$and':[{'meta.security':{'$elemMatch':{'system':'https://www.icanbwell.com/connectionType','code':'proa'}}},{'candidate._uuid':{'$in':['Patient/bb7862e6-b7ac-470e-bde3-e85cee9d1ce7','Patient/bb7862e6-b7ac-470e-bde3-e85cee9d1ce8']}},{'meta.tag':{'$not':{'$elemMatch':{'system':'https://fhir.icanbwell.com/4_0_0/CodeSystem/server-behavior','code':'hidden'}}}}]},{'$and':[{'meta.security':{'$elemMatch':{'system':'https://www.icanbwell.com/connectionType','code':'hipaa'}}},{'candidate._uuid':'Patient/d4c639de-f892-5b89-a63c-f64f0f2d69d1'},{'meta.tag':{'$not':{'$elemMatch':{'system':'https://fhir.icanbwell.com/4_0_0/CodeSystem/server-behavior','code':'hidden'}}}}]}]}, {'_id':0}) | db.EpisodeOfCare_4_0_0.find({'$or':[{'$and':[{'$or':[{'patient._uuid':{'$in':['Patient/bb7862e6-b7ac-470e-bde3-e85cee9d1ce6','Patient/bb7862e6-b7ac-470e-bde3-e85cee9d1ce7','Patient/bb7862e6-b7ac-470e-bde3-e85cee9d1ce8','Patient/d4c639de-f892-5b89-a63c-f64f0f2d69d1']}},{'patient._sourceId':'Patient/person.c12345'}]},{'meta.tag':{'$not':{'$elemMatch':{'system':'https://fhir.icanbwell.com/4_0_0/CodeSystem/server-behavior','code':'hidden'}}}},{'meta.security':{'$elemMatch':{'system':'https://www.icanbwell.com/access','code':'client'}}}]},{'$and':[{'meta.security':{'$elemMatch':{'system':'https://www.icanbwell.com/connectionType','code':'proa'}}},{'patient._uuid':{'$in':['Patient/bb7862e6-b7ac-470e-bde3-e85cee9d1ce7','Patient/bb7862e6-b7ac-470e-bde3-e85cee9d1ce8']}},{'meta.tag':{'$not':{'$elemMatch':{'system':'https://fhir.icanbwell.com/4_0_0/CodeSystem/server-behavior','code':'hidden'}}}}]},{'$and':[{'meta.security':{'$elemMatch':{'system':'https://www.icanbwell.com/connectionType','code':'hipaa'}}},{'patient._uuid':'Patient/d4c639de-f892-5b89-a63c-f64f0f2d69d1'},{'meta.tag':{'$not':{'$elemMatch':{'system':'https://fhir.icanbwell.com/4_0_0/CodeSystem/server-behavior','code':'hidden'}}}}]}]}, {'_id':0}) | db.ExplanationOfBenefit_4_0_0.find({'$or':[{'$and':[{'$or':[{'patient._uuid':{'$in':['Patient/bb7862e6-b7ac-470e-bde3-e85cee9d1ce6','Patient/bb7862e6-b7ac-470e-bde3-e85cee9d1ce7','Patient/bb7862e6-b7ac-470e-bde3-e85cee9d1ce8','Patient/d4c639de-f892-5b89-a63c-f64f0f2d69d1']}},{'patient._sourceId':'Patient/person.c12345'}]},{'meta.tag':{'$not':{'$elemMatch':{'system':'https://fhir.icanbwell.com/4_0_0/CodeSystem/server-behavior','code':'hidden'}}}},{'meta.security':{'$elemMatch':{'system':'https://www.icanbwell.com/access','code':'client'}}}]},{'$and':[{'meta.security':{'$elemMatch':{'system':'https://www.icanbwell.com/connectionType','code':'proa'}}},{'patient._uuid':{'$in':['Patient/bb7862e6-b7ac-470e-bde3-e85cee9d1ce7','Patient/bb7862e6-b7ac-470e-bde3-e85cee9d1ce8']}},{'meta.tag':{'$not':{'$elemMatch':{'system':'https://fhir.icanbwell.com/4_0_0/CodeSystem/server-behavior','code':'hidden'}}}}]},{'$and':[{'meta.security':{'$elemMatch':{'system':'https://www.icanbwell.com/connectionType','code':'hipaa'}}},{'patient._uuid':'Patient/d4c639de-f892-5b89-a63c-f64f0f2d69d1'},{'meta.tag':{'$not':{'$elemMatch':{'system':'https://fhir.icanbwell.com/4_0_0/CodeSystem/server-behavior','code':'hidden'}}}}]}]}, {'_id':0}) | db.FamilyMemberHistory_4_0_0.find({'$or':[{'$and':[{'$or':[{'patient._uuid':{'$in':['Patient/bb7862e6-b7ac-470e-bde3-e85cee9d1ce6','Patient/bb7862e6-b7ac-470e-bde3-e85cee9d1ce7','Patient/bb7862e6-b7ac-470e-bde3-e85cee9d1ce8','Patient/d4c639de-f892-5b89-a63c-f64f0f2d69d1']}},{'patient._sourceId':'Patient/person.c12345'}]},{'meta.tag':{'$not':{'$elemMatch':{'system':'https://fhir.icanbwell.com/4_0_0/CodeSystem/server-behavior','code':'hidden'}}}},{'meta.security':{'$elemMatch':{'system':'https://www.icanbwell.com/access','code':'client'}}}]},{'$and':[{'meta.security':{'$elemMatch':{'system':'https://www.icanbwell.com/connectionType','code':'proa'}}},{'patient._uuid':{'$in':['Patient/bb7862e6-b7ac-470e-bde3-e85cee9d1ce7','Patient/bb7862e6-b7ac-470e-bde3-e85cee9d1ce8']}},{'meta.tag':{'$not':{'$elemMatch':{'system':'https://fhir.icanbwell.com/4_0_0/CodeSystem/server-behavior','code':'hidden'}}}}]},{'$and':[{'meta.security':{'$elemMatch':{'system':'https://www.icanbwell.com/connectionType','code':'hipaa'}}},{'patient._uuid':'Patient/d4c639de-f892-5b89-a63c-f64f0f2d69d1'},{'meta.tag':{'$not':{'$elemMatch':{'system':'https://fhir.icanbwell.com/4_0_0/CodeSystem/server-behavior','code':'hidden'}}}}]}]}, {'_id':0}) | db.Flag_4_0_0.find({'$or':[{'$and':[{'$or':[{'subject._uuid':{'$in':['Patient/bb7862e6-b7ac-470e-bde3-e85cee9d1ce6','Patient/bb7862e6-b7ac-470e-bde3-e85cee9d1ce7','Patient/bb7862e6-b7ac-470e-bde3-e85cee9d1ce8','Patient/d4c639de-f892-5b89-a63c-f64f0f2d69d1']}},{'subject._sourceId':'Patient/person.c12345'}]},{'meta.tag':{'$not':{'$elemMatch':{'system':'https://fhir.icanbwell.com/4_0_0/CodeSystem/server-behavior','code':'hidden'}}}},{'meta.security':{'$elemMatch':{'system':'https://www.icanbwell.com/access','code':'client'}}}]},{'$and':[{'meta.security':{'$elemMatch':{'system':'https://www.icanbwell.com/connectionType','code':'proa'}}},{'subject._uuid':{'$in':['Patient/bb7862e6-b7ac-470e-bde3-e85cee9d1ce7','Patient/bb7862e6-b7ac-470e-bde3-e85cee9d1ce8']}},{'meta.tag':{'$not':{'$elemMatch':{'system':'https://fhir.icanbwell.com/4_0_0/CodeSystem/server-behavior','code':'hidden'}}}}]},{'$and':[{'meta.security':{'$elemMatch':{'system':'https://www.icanbwell.com/connectionType','code':'hipaa'}}},{'subject._uuid':'Patient/d4c639de-f892-5b89-a63c-f64f0f2d69d1'},{'meta.tag':{'$not':{'$elemMatch':{'system':'https://fhir.icanbwell.com/4_0_0/CodeSystem/server-behavior','code':'hidden'}}}}]}]}, {'_id':0}) | db.Goal_4_0_0.find({'$or':[{'$and':[{'$or':[{'subject._uuid':{'$in':['Patient/bb7862e6-b7ac-470e-bde3-e85cee9d1ce6','Patient/bb7862e6-b7ac-470e-bde3-e85cee9d1ce7','Patient/bb7862e6-b7ac-470e-bde3-e85cee9d1ce8','Patient/d4c639de-f892-5b89-a63c-f64f0f2d69d1']}},{'subject._sourceId':'Patient/person.c12345'}]},{'meta.tag':{'$not':{'$elemMatch':{'system':'https://fhir.icanbwell.com/4_0_0/CodeSystem/server-behavior','code':'hidden'}}}},{'meta.security':{'$elemMatch':{'system':'https://www.icanbwell.com/access','code':'client'}}}]},{'$and':[{'meta.security':{'$elemMatch':{'system':'https://www.icanbwell.com/connectionType','code':'proa'}}},{'subject._uuid':{'$in':['Patient/bb7862e6-b7ac-470e-bde3-e85cee9d1ce7','Patient/bb7862e6-b7ac-470e-bde3-e85cee9d1ce8']}},{'meta.tag':{'$not':{'$elemMatch':{'system':'https://fhir.icanbwell.com/4_0_0/CodeSystem/server-behavior','code':'hidden'}}}}]},{'$and':[{'meta.security':{'$elemMatch':{'system':'https://www.icanbwell.com/connectionType','code':'hipaa'}}},{'subject._uuid':'Patient/d4c639de-f892-5b89-a63c-f64f0f2d69d1'},{'meta.tag':{'$not':{'$elemMatch':{'system':'https://fhir.icanbwell.com/4_0_0/CodeSystem/server-behavior','code':'hidden'}}}}]}]}, {'_id':0}) | db.Group_4_0_0.find({'$or':[{'$and':[{'$or':[{'member.entity._uuid':{'$in':['Patient/bb7862e6-b7ac-470e-bde3-e85cee9d1ce6','Patient/bb7862e6-b7ac-470e-bde3-e85cee9d1ce7','Patient/bb7862e6-b7ac-470e-bde3-e85cee9d1ce8','Patient/d4c639de-f892-5b89-a63c-f64f0f2d69d1']}},{'member.entity._sourceId':'Patient/person.c12345'}]},{'meta.tag':{'$not':{'$elemMatch':{'system':'https://fhir.icanbwell.com/4_0_0/CodeSystem/server-behavior','code':'hidden'}}}},{'meta.security':{'$elemMatch':{'system':'https://www.icanbwell.com/access','code':'client'}}}]},{'$and':[{'meta.security':{'$elemMatch':{'system':'https://www.icanbwell.com/connectionType','code':'proa'}}},{'member.entity._uuid':{'$in':['Patient/bb7862e6-b7ac-470e-bde3-e85cee9d1ce7','Patient/bb7862e6-b7ac-470e-bde3-e85cee9d1ce8']}},{'meta.tag':{'$not':{'$elemMatch':{'system':'https://fhir.icanbwell.com/4_0_0/CodeSystem/server-behavior','code':'hidden'}}}}]},{'$and':[{'meta.security':{'$elemMatch':{'system':'https://www.icanbwell.com/connectionType','code':'hipaa'}}},{'member.entity._uuid':'Patient/d4c639de-f892-5b89-a63c-f64f0f2d69d1'},{'meta.tag':{'$not':{'$elemMatch':{'system':'https://fhir.icanbwell.com/4_0_0/CodeSystem/server-behavior','code':'hidden'}}}}]}]}, {'_id':0}) | db.GuidanceResponse_4_0_0.find({'$or':[{'$and':[{'$or':[{'subject._uuid':{'$in':['Patient/bb7862e6-b7ac-470e-bde3-e85cee9d1ce6','Patient/bb7862e6-b7ac-470e-bde3-e85cee9d1ce7','Patient/bb7862e6-b7ac-470e-bde3-e85cee9d1ce8','Patient/d4c639de-f892-5b89-a63c-f64f0f2d69d1']}},{'subject._sourceId':'Patient/person.c12345'}]},{'meta.tag':{'$not':{'$elemMatch':{'system':'https://fhir.icanbwell.com/4_0_0/CodeSystem/server-behavior','code':'hidden'}}}},{'meta.security':{'$elemMatch':{'system':'https://www.icanbwell.com/access','code':'client'}}}]},{'$and':[{'meta.security':{'$elemMatch':{'system':'https://www.icanbwell.com/connectionType','code':'proa'}}},{'subject._uuid':{'$in':['Patient/bb7862e6-b7ac-470e-bde3-e85cee9d1ce7','Patient/bb7862e6-b7ac-470e-bde3-e85cee9d1ce8']}},{'meta.tag':{'$not':{'$elemMatch':{'system':'https://fhir.icanbwell.com/4_0_0/CodeSystem/server-behavior','code':'hidden'}}}}]},{'$and':[{'meta.security':{'$elemMatch':{'system':'https://www.icanbwell.com/connectionType','code':'hipaa'}}},{'subject._uuid':'Patient/d4c639de-f892-5b89-a63c-f64f0f2d69d1'},{'meta.tag':{'$not':{'$elemMatch':{'system':'https://fhir.icanbwell.com/4_0_0/CodeSystem/server-behavior','code':'hidden'}}}}]}]}, {'_id':0}) | db.ImagingStudy_4_0_0.find({'$or':[{'$and':[{'$or':[{'subject._uuid':{'$in':['Patient/bb7862e6-b7ac-470e-bde3-e85cee9d1ce6','Patient/bb7862e6-b7ac-470e-bde3-e85cee9d1ce7','Patient/bb7862e6-b7ac-470e-bde3-e85cee9d1ce8','Patient/d4c639de-f892-5b89-a63c-f64f0f2d69d1']}},{'subject._sourceId':'Patient/person.c12345'}]},{'meta.tag':{'$not':{'$elemMatch':{'system':'https://fhir.icanbwell.com/4_0_0/CodeSystem/server-behavior','code':'hidden'}}}},{'meta.security':{'$elemMatch':{'system':'https://www.icanbwell.com/access','code':'client'}}}]},{'$and':[{'meta.security':{'$elemMatch':{'system':'https://www.icanbwell.com/connectionType','code':'proa'}}},{'subject._uuid':{'$in':['Patient/bb7862e6-b7ac-470e-bde3-e85cee9d1ce7','Patient/bb7862e6-b7ac-470e-bde3-e85cee9d1ce8']}},{'meta.tag':{'$not':{'$elemMatch':{'system':'https://fhir.icanbwell.com/4_0_0/CodeSystem/server-behavior','code':'hidden'}}}}]},{'$and':[{'meta.security':{'$elemMatch':{'system':'https://www.icanbwell.com/connectionType','code':'hipaa'}}},{'subject._uuid':'Patient/d4c639de-f892-5b89-a63c-f64f0f2d69d1'},{'meta.tag':{'$not':{'$elemMatch':{'system':'https://fhir.icanbwell.com/4_0_0/CodeSystem/server-behavior','code':'hidden'}}}}]}]}, {'_id':0}) | db.Immunization_4_0_0.find({'$or':[{'$and':[{'$or':[{'patient._uuid':{'$in':['Patient/bb7862e6-b7ac-470e-bde3-e85cee9d1ce6','Patient/bb7862e6-b7ac-470e-bde3-e85cee9d1ce7','Patient/bb7862e6-b7ac-470e-bde3-e85cee9d1ce8','Patient/d4c639de-f892-5b89-a63c-f64f0f2d69d1']}},{'patient._sourceId':'Patient/person.c12345'}]},{'meta.tag':{'$not':{'$elemMatch':{'system':'https://fhir.icanbwell.com/4_0_0/CodeSystem/server-behavior','code':'hidden'}}}},{'meta.security':{'$elemMatch':{'system':'https://www.icanbwell.com/access','code':'client'}}}]},{'$and':[{'meta.security':{'$elemMatch':{'system':'https://www.icanbwell.com/connectionType','code':'proa'}}},{'patient._uuid':{'$in':['Patient/bb7862e6-b7ac-470e-bde3-e85cee9d1ce7','Patient/bb7862e6-b7ac-470e-bde3-e85cee9d1ce8']}},{'meta.tag':{'$not':{'$elemMatch':{'system':'https://fhir.icanbwell.com/4_0_0/CodeSystem/server-behavior','code':'hidden'}}}}]},{'$and':[{'meta.security':{'$elemMatch':{'system':'https://www.icanbwell.com/connectionType','code':'hipaa'}}},{'patient._uuid':'Patient/d4c639de-f892-5b89-a63c-f64f0f2d69d1'},{'meta.tag':{'$not':{'$elemMatch':{'system':'https://fhir.icanbwell.com/4_0_0/CodeSystem/server-behavior','code':'hidden'}}}}]}]}, {'_id':0}) | db.ImmunizationEvaluation_4_0_0.find({'$or':[{'$and':[{'$or':[{'patient._uuid':{'$in':['Patient/bb7862e6-b7ac-470e-bde3-e85cee9d1ce6','Patient/bb7862e6-b7ac-470e-bde3-e85cee9d1ce7','Patient/bb7862e6-b7ac-470e-bde3-e85cee9d1ce8','Patient/d4c639de-f892-5b89-a63c-f64f0f2d69d1']}},{'patient._sourceId':'Patient/person.c12345'}]},{'meta.tag':{'$not':{'$elemMatch':{'system':'https://fhir.icanbwell.com/4_0_0/CodeSystem/server-behavior','code':'hidden'}}}},{'meta.security':{'$elemMatch':{'system':'https://www.icanbwell.com/access','code':'client'}}}]},{'$and':[{'meta.security':{'$elemMatch':{'system':'https://www.icanbwell.com/connectionType','code':'proa'}}},{'patient._uuid':{'$in':['Patient/bb7862e6-b7ac-470e-bde3-e85cee9d1ce7','Patient/bb7862e6-b7ac-470e-bde3-e85cee9d1ce8']}},{'meta.tag':{'$not':{'$elemMatch':{'system':'https://fhir.icanbwell.com/4_0_0/CodeSystem/server-behavior','code':'hidden'}}}}]},{'$and':[{'meta.security':{'$elemMatch':{'system':'https://www.icanbwell.com/connectionType','code':'hipaa'}}},{'patient._uuid':'Patient/d4c639de-f892-5b89-a63c-f64f0f2d69d1'},{'meta.tag':{'$not':{'$elemMatch':{'system':'https://fhir.icanbwell.com/4_0_0/CodeSystem/server-behavior','code':'hidden'}}}}]}]}, {'_id':0}) | db.ImmunizationRecommendation_4_0_0.find({'$or':[{'$and':[{'$or':[{'patient._uuid':{'$in':['Patient/bb7862e6-b7ac-470e-bde3-e85cee9d1ce6','Patient/bb7862e6-b7ac-470e-bde3-e85cee9d1ce7','Patient/bb7862e6-b7ac-470e-bde3-e85cee9d1ce8','Patient/d4c639de-f892-5b89-a63c-f64f0f2d69d1']}},{'patient._sourceId':'Patient/person.c12345'}]},{'meta.tag':{'$not':{'$elemMatch':{'system':'https://fhir.icanbwell.com/4_0_0/CodeSystem/server-behavior','code':'hidden'}}}},{'meta.security':{'$elemMatch':{'system':'https://www.icanbwell.com/access','code':'client'}}}]},{'$and':[{'meta.security':{'$elemMatch':{'system':'https://www.icanbwell.com/connectionType','code':'proa'}}},{'patient._uuid':{'$in':['Patient/bb7862e6-b7ac-470e-bde3-e85cee9d1ce7','Patient/bb7862e6-b7ac-470e-bde3-e85cee9d1ce8']}},{'meta.tag':{'$not':{'$elemMatch':{'system':'https://fhir.icanbwell.com/4_0_0/CodeSystem/server-behavior','code':'hidden'}}}}]},{'$and':[{'meta.security':{'$elemMatch':{'system':'https://www.icanbwell.com/connectionType','code':'hipaa'}}},{'patient._uuid':'Patient/d4c639de-f892-5b89-a63c-f64f0f2d69d1'},{'meta.tag':{'$not':{'$elemMatch':{'system':'https://fhir.icanbwell.com/4_0_0/CodeSystem/server-behavior','code':'hidden'}}}}]}]}, {'_id':0}) | db.Invoice_4_0_0.find({'$or':[{'$and':[{'$or':[{'subject._uuid':{'$in':['Patient/bb7862e6-b7ac-470e-bde3-e85cee9d1ce6','Patient/bb7862e6-b7ac-470e-bde3-e85cee9d1ce7','Patient/bb7862e6-b7ac-470e-bde3-e85cee9d1ce8','Patient/d4c639de-f892-5b89-a63c-f64f0f2d69d1']}},{'subject._sourceId':'Patient/person.c12345'}]},{'meta.tag':{'$not':{'$elemMatch':{'system':'https://fhir.icanbwell.com/4_0_0/CodeSystem/server-behavior','code':'hidden'}}}},{'meta.security':{'$elemMatch':{'system':'https://www.icanbwell.com/access','code':'client'}}}]},{'$and':[{'meta.security':{'$elemMatch':{'system':'https://www.icanbwell.com/connectionType','code':'proa'}}},{'subject._uuid':{'$in':['Patient/bb7862e6-b7ac-470e-bde3-e85cee9d1ce7','Patient/bb7862e6-b7ac-470e-bde3-e85cee9d1ce8']}},{'meta.tag':{'$not':{'$elemMatch':{'system':'https://fhir.icanbwell.com/4_0_0/CodeSystem/server-behavior','code':'hidden'}}}}]},{'$and':[{'meta.security':{'$elemMatch':{'system':'https://www.icanbwell.com/connectionType','code':'hipaa'}}},{'subject._uuid':'Patient/d4c639de-f892-5b89-a63c-f64f0f2d69d1'},{'meta.tag':{'$not':{'$elemMatch':{'system':'https://fhir.icanbwell.com/4_0_0/CodeSystem/server-behavior','code':'hidden'}}}}]}]}, {'_id':0}) | db.Linkage_4_0_0.find({'$or':[{'$and':[{'$or':[{'item.resource._uuid':{'$in':['Patient/bb7862e6-b7ac-470e-bde3-e85cee9d1ce6','Patient/bb7862e6-b7ac-470e-bde3-e85cee9d1ce7','Patient/bb7862e6-b7ac-470e-bde3-e85cee9d1ce8','Patient/d4c639de-f892-5b89-a63c-f64f0f2d69d1']}},{'item.resource._sourceId':'Patient/person.c12345'}]},{'meta.tag':{'$not':{'$elemMatch':{'system':'https://fhir.icanbwell.com/4_0_0/CodeSystem/server-behavior','code':'hidden'}}}},{'meta.security':{'$elemMatch':{'system':'https://www.icanbwell.com/access','code':'client'}}}]},{'$and':[{'meta.security':{'$elemMatch':{'system':'https://www.icanbwell.com/connectionType','code':'proa'}}},{'item.resource._uuid':{'$in':['Patient/bb7862e6-b7ac-470e-bde3-e85cee9d1ce7','Patient/bb7862e6-b7ac-470e-bde3-e85cee9d1ce8']}},{'meta.tag':{'$not':{'$elemMatch':{'system':'https://fhir.icanbwell.com/4_0_0/CodeSystem/server-behavior','code':'hidden'}}}}]},{'$and':[{'meta.security':{'$elemMatch':{'system':'https://www.icanbwell.com/connectionType','code':'hipaa'}}},{'item.resource._uuid':'Patient/d4c639de-f892-5b89-a63c-f64f0f2d69d1'},{'meta.tag':{'$not':{'$elemMatch':{'system':'https://fhir.icanbwell.com/4_0_0/CodeSystem/server-behavior','code':'hidden'}}}}]}]}, {'_id':0}) | db.List_4_0_0.find({'$or':[{'$and':[{'$or':[{'subject._uuid':{'$in':['Patient/bb7862e6-b7ac-470e-bde3-e85cee9d1ce6','Patient/bb7862e6-b7ac-470e-bde3-e85cee9d1ce7','Patient/bb7862e6-b7ac-470e-bde3-e85cee9d1ce8','Patient/d4c639de-f892-5b89-a63c-f64f0f2d69d1']}},{'subject._sourceId':'Patient/person.c12345'}]},{'meta.tag':{'$not':{'$elemMatch':{'system':'https://fhir.icanbwell.com/4_0_0/CodeSystem/server-behavior','code':'hidden'}}}},{'meta.security':{'$elemMatch':{'system':'https://www.icanbwell.com/access','code':'client'}}}]},{'$and':[{'meta.security':{'$elemMatch':{'system':'https://www.icanbwell.com/connectionType','code':'proa'}}},{'subject._uuid':{'$in':['Patient/bb7862e6-b7ac-470e-bde3-e85cee9d1ce7','Patient/bb7862e6-b7ac-470e-bde3-e85cee9d1ce8']}},{'meta.tag':{'$not':{'$elemMatch':{'system':'https://fhir.icanbwell.com/4_0_0/CodeSystem/server-behavior','code':'hidden'}}}}]},{'$and':[{'meta.security':{'$elemMatch':{'system':'https://www.icanbwell.com/connectionType','code':'hipaa'}}},{'subject._uuid':'Patient/d4c639de-f892-5b89-a63c-f64f0f2d69d1'},{'meta.tag':{'$not':{'$elemMatch':{'system':'https://fhir.icanbwell.com/4_0_0/CodeSystem/server-behavior','code':'hidden'}}}}]}]}, {'_id':0}) | db.MeasureReport_4_0_0.find({'$or':[{'$and':[{'$or':[{'subject._uuid':{'$in':['Patient/bb7862e6-b7ac-470e-bde3-e85cee9d1ce6','Patient/bb7862e6-b7ac-470e-bde3-e85cee9d1ce7','Patient/bb7862e6-b7ac-470e-bde3-e85cee9d1ce8','Patient/d4c639de-f892-5b89-a63c-f64f0f2d69d1']}},{'subject._sourceId':'Patient/person.c12345'}]},{'meta.tag':{'$not':{'$elemMatch':{'system':'https://fhir.icanbwell.com/4_0_0/CodeSystem/server-behavior','code':'hidden'}}}},{'meta.security':{'$elemMatch':{'system':'https://www.icanbwell.com/access','code':'client'}}}]},{'$and':[{'meta.security':{'$elemMatch':{'system':'https://www.icanbwell.com/connectionType','code':'proa'}}},{'subject._uuid':{'$in':['Patient/bb7862e6-b7ac-470e-bde3-e85cee9d1ce7','Patient/bb7862e6-b7ac-470e-bde3-e85cee9d1ce8']}},{'meta.tag':{'$not':{'$elemMatch':{'system':'https://fhir.icanbwell.com/4_0_0/CodeSystem/server-behavior','code':'hidden'}}}}]},{'$and':[{'meta.security':{'$elemMatch':{'system':'https://www.icanbwell.com/connectionType','code':'hipaa'}}},{'subject._uuid':'Patient/d4c639de-f892-5b89-a63c-f64f0f2d69d1'},{'meta.tag':{'$not':{'$elemMatch':{'system':'https://fhir.icanbwell.com/4_0_0/CodeSystem/server-behavior','code':'hidden'}}}}]}]}, {'_id':0}) | db.Media_4_0_0.find({'$or':[{'$and':[{'$or':[{'subject._uuid':{'$in':['Patient/bb7862e6-b7ac-470e-bde3-e85cee9d1ce6','Patient/bb7862e6-b7ac-470e-bde3-e85cee9d1ce7','Patient/bb7862e6-b7ac-470e-bde3-e85cee9d1ce8','Patient/d4c639de-f892-5b89-a63c-f64f0f2d69d1']}},{'subject._sourceId':'Patient/person.c12345'}]},{'meta.tag':{'$not':{'$elemMatch':{'system':'https://fhir.icanbwell.com/4_0_0/CodeSystem/server-behavior','code':'hidden'}}}},{'meta.security':{'$elemMatch':{'system':'https://www.icanbwell.com/access','code':'client'}}}]},{'$and':[{'meta.security':{'$elemMatch':{'system':'https://www.icanbwell.com/connectionType','code':'proa'}}},{'subject._uuid':{'$in':['Patient/bb7862e6-b7ac-470e-bde3-e85cee9d1ce7','Patient/bb7862e6-b7ac-470e-bde3-e85cee9d1ce8']}},{'meta.tag':{'$not':{'$elemMatch':{'system':'https://fhir.icanbwell.com/4_0_0/CodeSystem/server-behavior','code':'hidden'}}}}]},{'$and':[{'meta.security':{'$elemMatch':{'system':'https://www.icanbwell.com/connectionType','code':'hipaa'}}},{'subject._uuid':'Patient/d4c639de-f892-5b89-a63c-f64f0f2d69d1'},{'meta.tag':{'$not':{'$elemMatch':{'system':'https://fhir.icanbwell.com/4_0_0/CodeSystem/server-behavior','code':'hidden'}}}}]}]}, {'_id':0}) | db.MedicationAdministration_4_0_0.find({'$or':[{'$and':[{'$or':[{'subject._uuid':{'$in':['Patient/bb7862e6-b7ac-470e-bde3-e85cee9d1ce6','Patient/bb7862e6-b7ac-470e-bde3-e85cee9d1ce7','Patient/bb7862e6-b7ac-470e-bde3-e85cee9d1ce8','Patient/d4c639de-f892-5b89-a63c-f64f0f2d69d1']}},{'subject._sourceId':'Patient/person.c12345'}]},{'meta.tag':{'$not':{'$elemMatch':{'system':'https://fhir.icanbwell.com/4_0_0/CodeSystem/server-behavior','code':'hidden'}}}},{'meta.security':{'$elemMatch':{'system':'https://www.icanbwell.com/access','code':'client'}}}]},{'$and':[{'meta.security':{'$elemMatch':{'system':'https://www.icanbwell.com/connectionType','code':'proa'}}},{'subject._uuid':{'$in':['Patient/bb7862e6-b7ac-470e-bde3-e85cee9d1ce7','Patient/bb7862e6-b7ac-470e-bde3-e85cee9d1ce8']}},{'meta.tag':{'$not':{'$elemMatch':{'system':'https://fhir.icanbwell.com/4_0_0/CodeSystem/server-behavior','code':'hidden'}}}}]},{'$and':[{'meta.security':{'$elemMatch':{'system':'https://www.icanbwell.com/connectionType','code':'hipaa'}}},{'subject._uuid':'Patient/d4c639de-f892-5b89-a63c-f64f0f2d69d1'},{'meta.tag':{'$not':{'$elemMatch':{'system':'https://fhir.icanbwell.com/4_0_0/CodeSystem/server-behavior','code':'hidden'}}}}]}]}, {'_id':0}) | db.MedicationDispense_4_0_0.find({'$or':[{'$and':[{'$or':[{'subject._uuid':{'$in':['Patient/bb7862e6-b7ac-470e-bde3-e85cee9d1ce6','Patient/bb7862e6-b7ac-470e-bde3-e85cee9d1ce7','Patient/bb7862e6-b7ac-470e-bde3-e85cee9d1ce8','Patient/d4c639de-f892-5b89-a63c-f64f0f2d69d1']}},{'subject._sourceId':'Patient/person.c12345'}]},{'meta.tag':{'$not':{'$elemMatch':{'system':'https://fhir.icanbwell.com/4_0_0/CodeSystem/server-behavior','code':'hidden'}}}},{'meta.security':{'$elemMatch':{'system':'https://www.icanbwell.com/access','code':'client'}}}]},{'$and':[{'meta.security':{'$elemMatch':{'system':'https://www.icanbwell.com/connectionType','code':'proa'}}},{'subject._uuid':{'$in':['Patient/bb7862e6-b7ac-470e-bde3-e85cee9d1ce7','Patient/bb7862e6-b7ac-470e-bde3-e85cee9d1ce8']}},{'meta.tag':{'$not':{'$elemMatch':{'system':'https://fhir.icanbwell.com/4_0_0/CodeSystem/server-behavior','code':'hidden'}}}}]},{'$and':[{'meta.security':{'$elemMatch':{'system':'https://www.icanbwell.com/connectionType','code':'hipaa'}}},{'subject._uuid':'Patient/d4c639de-f892-5b89-a63c-f64f0f2d69d1'},{'meta.tag':{'$not':{'$elemMatch':{'system':'https://fhir.icanbwell.com/4_0_0/CodeSystem/server-behavior','code':'hidden'}}}}]}]}, {'_id':0}) | db.MedicationRequest_4_0_0.find({'$or':[{'$and':[{'$or':[{'subject._uuid':{'$in':['Patient/bb7862e6-b7ac-470e-bde3-e85cee9d1ce6','Patient/bb7862e6-b7ac-470e-bde3-e85cee9d1ce7','Patient/bb7862e6-b7ac-470e-bde3-e85cee9d1ce8','Patient/d4c639de-f892-5b89-a63c-f64f0f2d69d1']}},{'subject._sourceId':'Patient/person.c12345'}]},{'meta.tag':{'$not':{'$elemMatch':{'system':'https://fhir.icanbwell.com/4_0_0/CodeSystem/server-behavior','code':'hidden'}}}},{'meta.security':{'$elemMatch':{'system':'https://www.icanbwell.com/access','code':'client'}}}]},{'$and':[{'meta.security':{'$elemMatch':{'system':'https://www.icanbwell.com/connectionType','code':'proa'}}},{'subject._uuid':{'$in':['Patient/bb7862e6-b7ac-470e-bde3-e85cee9d1ce7','Patient/bb7862e6-b7ac-470e-bde3-e85cee9d1ce8']}},{'meta.tag':{'$not':{'$elemMatch':{'system':'https://fhir.icanbwell.com/4_0_0/CodeSystem/server-behavior','code':'hidden'}}}}]},{'$and':[{'meta.security':{'$elemMatch':{'system':'https://www.icanbwell.com/connectionType','code':'hipaa'}}},{'subject._uuid':'Patient/d4c639de-f892-5b89-a63c-f64f0f2d69d1'},{'meta.tag':{'$not':{'$elemMatch':{'system':'https://fhir.icanbwell.com/4_0_0/CodeSystem/server-behavior','code':'hidden'}}}}]}]}, {'_id':0}) | db.MedicationStatement_4_0_0.find({'$or':[{'$and':[{'$or':[{'subject._uuid':{'$in':['Patient/bb7862e6-b7ac-470e-bde3-e85cee9d1ce6','Patient/bb7862e6-b7ac-470e-bde3-e85cee9d1ce7','Patient/bb7862e6-b7ac-470e-bde3-e85cee9d1ce8','Patient/d4c639de-f892-5b89-a63c-f64f0f2d69d1']}},{'subject._sourceId':'Patient/person.c12345'}]},{'meta.tag':{'$not':{'$elemMatch':{'system':'https://fhir.icanbwell.com/4_0_0/CodeSystem/server-behavior','code':'hidden'}}}},{'meta.security':{'$elemMatch':{'system':'https://www.icanbwell.com/access','code':'client'}}}]},{'$and':[{'meta.security':{'$elemMatch':{'system':'https://www.icanbwell.com/connectionType','code':'proa'}}},{'subject._uuid':{'$in':['Patient/bb7862e6-b7ac-470e-bde3-e85cee9d1ce7','Patient/bb7862e6-b7ac-470e-bde3-e85cee9d1ce8']}},{'meta.tag':{'$not':{'$elemMatch':{'system':'https://fhir.icanbwell.com/4_0_0/CodeSystem/server-behavior','code':'hidden'}}}}]},{'$and':[{'meta.security':{'$elemMatch':{'system':'https://www.icanbwell.com/connectionType','code':'hipaa'}}},{'subject._uuid':'Patient/d4c639de-f892-5b89-a63c-f64f0f2d69d1'},{'meta.tag':{'$not':{'$elemMatch':{'system':'https://fhir.icanbwell.com/4_0_0/CodeSystem/server-behavior','code':'hidden'}}}}]}]}, {'_id':0}) | db.MolecularSequence_4_0_0.find({'$or':[{'$and':[{'$or':[{'patient._uuid':{'$in':['Patient/bb7862e6-b7ac-470e-bde3-e85cee9d1ce6','Patient/bb7862e6-b7ac-470e-bde3-e85cee9d1ce7','Patient/bb7862e6-b7ac-470e-bde3-e85cee9d1ce8','Patient/d4c639de-f892-5b89-a63c-f64f0f2d69d1']}},{'patient._sourceId':'Patient/person.c12345'}]},{'meta.tag':{'$not':{'$elemMatch':{'system':'https://fhir.icanbwell.com/4_0_0/CodeSystem/server-behavior','code':'hidden'}}}},{'meta.security':{'$elemMatch':{'system':'https://www.icanbwell.com/access','code':'client'}}}]},{'$and':[{'meta.security':{'$elemMatch':{'system':'https://www.icanbwell.com/connectionType','code':'proa'}}},{'patient._uuid':{'$in':['Patient/bb7862e6-b7ac-470e-bde3-e85cee9d1ce7','Patient/bb7862e6-b7ac-470e-bde3-e85cee9d1ce8']}},{'meta.tag':{'$not':{'$elemMatch':{'system':'https://fhir.icanbwell.com/4_0_0/CodeSystem/server-behavior','code':'hidden'}}}}]},{'$and':[{'meta.security':{'$elemMatch':{'system':'https://www.icanbwell.com/connectionType','code':'hipaa'}}},{'patient._uuid':'Patient/d4c639de-f892-5b89-a63c-f64f0f2d69d1'},{'meta.tag':{'$not':{'$elemMatch':{'system':'https://fhir.icanbwell.com/4_0_0/CodeSystem/server-behavior','code':'hidden'}}}}]}]}, {'_id':0}) | db.NutritionOrder_4_0_0.find({'$or':[{'$and':[{'$or':[{'patient._uuid':{'$in':['Patient/bb7862e6-b7ac-470e-bde3-e85cee9d1ce6','Patient/bb7862e6-b7ac-470e-bde3-e85cee9d1ce7','Patient/bb7862e6-b7ac-470e-bde3-e85cee9d1ce8','Patient/d4c639de-f892-5b89-a63c-f64f0f2d69d1']}},{'patient._sourceId':'Patient/person.c12345'}]},{'meta.tag':{'$not':{'$elemMatch':{'system':'https://fhir.icanbwell.com/4_0_0/CodeSystem/server-behavior','code':'hidden'}}}},{'meta.security':{'$elemMatch':{'system':'https://www.icanbwell.com/access','code':'client'}}}]},{'$and':[{'meta.security':{'$elemMatch':{'system':'https://www.icanbwell.com/connectionType','code':'proa'}}},{'patient._uuid':{'$in':['Patient/bb7862e6-b7ac-470e-bde3-e85cee9d1ce7','Patient/bb7862e6-b7ac-470e-bde3-e85cee9d1ce8']}},{'meta.tag':{'$not':{'$elemMatch':{'system':'https://fhir.icanbwell.com/4_0_0/CodeSystem/server-behavior','code':'hidden'}}}}]},{'$and':[{'meta.security':{'$elemMatch':{'system':'https://www.icanbwell.com/connectionType','code':'hipaa'}}},{'patient._uuid':'Patient/d4c639de-f892-5b89-a63c-f64f0f2d69d1'},{'meta.tag':{'$not':{'$elemMatch':{'system':'https://fhir.icanbwell.com/4_0_0/CodeSystem/server-behavior','code':'hidden'}}}}]}]}, {'_id':0}) | db.Observation_4_0_0.find({'$or':[{'$and':[{'$or':[{'subject._uuid':{'$in':['Patient/bb7862e6-b7ac-470e-bde3-e85cee9d1ce6','Patient/bb7862e6-b7ac-470e-bde3-e85cee9d1ce7','Patient/bb7862e6-b7ac-470e-bde3-e85cee9d1ce8','Patient/d4c639de-f892-5b89-a63c-f64f0f2d69d1']}},{'subject._sourceId':'Patient/person.c12345'}]},{'meta.tag':{'$not':{'$elemMatch':{'system':'https://fhir.icanbwell.com/4_0_0/CodeSystem/server-behavior','code':'hidden'}}}},{'meta.security':{'$elemMatch':{'system':'https://www.icanbwell.com/access','code':'client'}}}]},{'$and':[{'meta.security':{'$elemMatch':{'system':'https://www.icanbwell.com/connectionType','code':'proa'}}},{'subject._uuid':{'$in':['Patient/bb7862e6-b7ac-470e-bde3-e85cee9d1ce7','Patient/bb7862e6-b7ac-470e-bde3-e85cee9d1ce8']}},{'meta.tag':{'$not':{'$elemMatch':{'system':'https://fhir.icanbwell.com/4_0_0/CodeSystem/server-behavior','code':'hidden'}}}}]},{'$and':[{'meta.security':{'$elemMatch':{'system':'https://www.icanbwell.com/connectionType','code':'hipaa'}}},{'subject._uuid':'Patient/d4c639de-f892-5b89-a63c-f64f0f2d69d1'},{'meta.tag':{'$not':{'$elemMatch':{'system':'https://fhir.icanbwell.com/4_0_0/CodeSystem/server-behavior','code':'hidden'}}}}]}]}, {'_id':0}) | db.Patient_4_0_0.find({'$or':[{'$and':[{'$or':[{'link.other._uuid':{'$in':['Patient/bb7862e6-b7ac-470e-bde3-e85cee9d1ce6','Patient/bb7862e6-b7ac-470e-bde3-e85cee9d1ce7','Patient/bb7862e6-b7ac-470e-bde3-e85cee9d1ce8','Patient/d4c639de-f892-5b89-a63c-f64f0f2d69d1']}},{'link.other._sourceId':'Patient/person.c12345'}]},{'meta.tag':{'$not':{'$elemMatch':{'system':'https://fhir.icanbwell.com/4_0_0/CodeSystem/server-behavior','code':'hidden'}}}},{'meta.security':{'$elemMatch':{'system':'https://www.icanbwell.com/access','code':'client'}}}]},{'$and':[{'meta.security':{'$elemMatch':{'system':'https://www.icanbwell.com/connectionType','code':'proa'}}},{'$or':[{'link.other._uuid':{'$in':['Patient/bb7862e6-b7ac-470e-bde3-e85cee9d1ce6','Patient/bb7862e6-b7ac-470e-bde3-e85cee9d1ce7','Patient/bb7862e6-b7ac-470e-bde3-e85cee9d1ce8','Patient/d4c639de-f892-5b89-a63c-f64f0f2d69d1']}},{'link.other._sourceId':'Patient/person.c12345'}]},{'meta.tag':{'$not':{'$elemMatch':{'system':'https://fhir.icanbwell.com/4_0_0/CodeSystem/server-behavior','code':'hidden'}}}}]},{'$and':[{'meta.security':{'$elemMatch':{'system':'https://www.icanbwell.com/connectionType','code':'hipaa'}}},{'$or':[{'link.other._uuid':{'$in':['Patient/bb7862e6-b7ac-470e-bde3-e85cee9d1ce6','Patient/bb7862e6-b7ac-470e-bde3-e85cee9d1ce7','Patient/bb7862e6-b7ac-470e-bde3-e85cee9d1ce8','Patient/d4c639de-f892-5b89-a63c-f64f0f2d69d1']}},{'link.other._sourceId':'Patient/person.c12345'}]},{'meta.tag':{'$not':{'$elemMatch':{'system':'https://fhir.icanbwell.com/4_0_0/CodeSystem/server-behavior','code':'hidden'}}}}]}]}, {'_id':0}) | db.PaymentNotice_4_0_0.find({'$or':[{'$and':[{'$or':[{'request._uuid':{'$in':['Patient/bb7862e6-b7ac-470e-bde3-e85cee9d1ce6','Patient/bb7862e6-b7ac-470e-bde3-e85cee9d1ce7','Patient/bb7862e6-b7ac-470e-bde3-e85cee9d1ce8','Patient/d4c639de-f892-5b89-a63c-f64f0f2d69d1']}},{'request._sourceId':'Patient/person.c12345'}]},{'meta.tag':{'$not':{'$elemMatch':{'system':'https://fhir.icanbwell.com/4_0_0/CodeSystem/server-behavior','code':'hidden'}}}},{'meta.security':{'$elemMatch':{'system':'https://www.icanbwell.com/access','code':'client'}}}]},{'$and':[{'meta.security':{'$elemMatch':{'system':'https://www.icanbwell.com/connectionType','code':'proa'}}},{'request._uuid':{'$in':['Patient/bb7862e6-b7ac-470e-bde3-e85cee9d1ce7','Patient/bb7862e6-b7ac-470e-bde3-e85cee9d1ce8']}},{'meta.tag':{'$not':{'$elemMatch':{'system':'https://fhir.icanbwell.com/4_0_0/CodeSystem/server-behavior','code':'hidden'}}}}]},{'$and':[{'meta.security':{'$elemMatch':{'system':'https://www.icanbwell.com/connectionType','code':'hipaa'}}},{'request._uuid':'Patient/d4c639de-f892-5b89-a63c-f64f0f2d69d1'},{'meta.tag':{'$not':{'$elemMatch':{'system':'https://fhir.icanbwell.com/4_0_0/CodeSystem/server-behavior','code':'hidden'}}}}]}]}, {'_id':0}) | db.Person_4_0_0.find({'$or':[{'$and':[{'$or':[{'link.target._uuid':{'$in':['Patient/bb7862e6-b7ac-470e-bde3-e85cee9d1ce6','Patient/bb7862e6-b7ac-470e-bde3-e85cee9d1ce7','Patient/bb7862e6-b7ac-470e-bde3-e85cee9d1ce8','Patient/d4c639de-f892-5b89-a63c-f64f0f2d69d1']}},{'link.target._sourceId':'Patient/person.c12345'}]},{'meta.tag':{'$not':{'$elemMatch':{'system':'https://fhir.icanbwell.com/4_0_0/CodeSystem/server-behavior','code':'hidden'}}}},{'meta.security':{'$elemMatch':{'system':'https://www.icanbwell.com/access','code':'client'}}}]},{'$and':[{'meta.security':{'$elemMatch':{'system':'https://www.icanbwell.com/connectionType','code':'proa'}}},{'link.target._uuid':{'$in':['Patient/bb7862e6-b7ac-470e-bde3-e85cee9d1ce7','Patient/bb7862e6-b7ac-470e-bde3-e85cee9d1ce8']}},{'meta.tag':{'$not':{'$elemMatch':{'system':'https://fhir.icanbwell.com/4_0_0/CodeSystem/server-behavior','code':'hidden'}}}}]},{'$and':[{'meta.security':{'$elemMatch':{'system':'https://www.icanbwell.com/connectionType','code':'hipaa'}}},{'link.target._uuid':'Patient/d4c639de-f892-5b89-a63c-f64f0f2d69d1'},{'meta.tag':{'$not':{'$elemMatch':{'system':'https://fhir.icanbwell.com/4_0_0/CodeSystem/server-behavior','code':'hidden'}}}}]}]}, {'_id':0}) | db.Procedure_4_0_0.find({'$or':[{'$and':[{'$or':[{'subject._uuid':{'$in':['Patient/bb7862e6-b7ac-470e-bde3-e85cee9d1ce6','Patient/bb7862e6-b7ac-470e-bde3-e85cee9d1ce7','Patient/bb7862e6-b7ac-470e-bde3-e85cee9d1ce8','Patient/d4c639de-f892-5b89-a63c-f64f0f2d69d1']}},{'subject._sourceId':'Patient/person.c12345'}]},{'meta.tag':{'$not':{'$elemMatch':{'system':'https://fhir.icanbwell.com/4_0_0/CodeSystem/server-behavior','code':'hidden'}}}},{'meta.security':{'$elemMatch':{'system':'https://www.icanbwell.com/access','code':'client'}}}]},{'$and':[{'meta.security':{'$elemMatch':{'system':'https://www.icanbwell.com/connectionType','code':'proa'}}},{'subject._uuid':{'$in':['Patient/bb7862e6-b7ac-470e-bde3-e85cee9d1ce7','Patient/bb7862e6-b7ac-470e-bde3-e85cee9d1ce8']}},{'meta.tag':{'$not':{'$elemMatch':{'system':'https://fhir.icanbwell.com/4_0_0/CodeSystem/server-behavior','code':'hidden'}}}}]},{'$and':[{'meta.security':{'$elemMatch':{'system':'https://www.icanbwell.com/connectionType','code':'hipaa'}}},{'subject._uuid':'Patient/d4c639de-f892-5b89-a63c-f64f0f2d69d1'},{'meta.tag':{'$not':{'$elemMatch':{'system':'https://fhir.icanbwell.com/4_0_0/CodeSystem/server-behavior','code':'hidden'}}}}]}]}, {'_id':0}) | db.Provenance_4_0_0.find({'$or':[{'$and':[{'$or':[{'target._uuid':{'$in':['Patient/bb7862e6-b7ac-470e-bde3-e85cee9d1ce6','Patient/bb7862e6-b7ac-470e-bde3-e85cee9d1ce7','Patient/bb7862e6-b7ac-470e-bde3-e85cee9d1ce8','Patient/d4c639de-f892-5b89-a63c-f64f0f2d69d1']}},{'target._sourceId':'Patient/person.c12345'}]},{'meta.tag':{'$not':{'$elemMatch':{'system':'https://fhir.icanbwell.com/4_0_0/CodeSystem/server-behavior','code':'hidden'}}}},{'meta.security':{'$elemMatch':{'system':'https://www.icanbwell.com/access','code':'client'}}}]},{'$and':[{'meta.security':{'$elemMatch':{'system':'https://www.icanbwell.com/connectionType','code':'proa'}}},{'target._uuid':{'$in':['Patient/bb7862e6-b7ac-470e-bde3-e85cee9d1ce7','Patient/bb7862e6-b7ac-470e-bde3-e85cee9d1ce8']}},{'meta.tag':{'$not':{'$elemMatch':{'system':'https://fhir.icanbwell.com/4_0_0/CodeSystem/server-behavior','code':'hidden'}}}}]},{'$and':[{'meta.security':{'$elemMatch':{'system':'https://www.icanbwell.com/connectionType','code':'hipaa'}}},{'target._uuid':'Patient/d4c639de-f892-5b89-a63c-f64f0f2d69d1'},{'meta.tag':{'$not':{'$elemMatch':{'system':'https://fhir.icanbwell.com/4_0_0/CodeSystem/server-behavior','code':'hidden'}}}}]}]}, {'_id':0}) | db.QuestionnaireResponse_4_0_0.find({'$or':[{'$and':[{'$or':[{'subject._uuid':{'$in':['Patient/bb7862e6-b7ac-470e-bde3-e85cee9d1ce6','Patient/bb7862e6-b7ac-470e-bde3-e85cee9d1ce7','Patient/bb7862e6-b7ac-470e-bde3-e85cee9d1ce8','Patient/d4c639de-f892-5b89-a63c-f64f0f2d69d1']}},{'subject._sourceId':'Patient/person.c12345'}]},{'meta.tag':{'$not':{'$elemMatch':{'system':'https://fhir.icanbwell.com/4_0_0/CodeSystem/server-behavior','code':'hidden'}}}},{'meta.security':{'$elemMatch':{'system':'https://www.icanbwell.com/access','code':'client'}}}]},{'$and':[{'meta.security':{'$elemMatch':{'system':'https://www.icanbwell.com/connectionType','code':'proa'}}},{'subject._uuid':{'$in':['Patient/bb7862e6-b7ac-470e-bde3-e85cee9d1ce7','Patient/bb7862e6-b7ac-470e-bde3-e85cee9d1ce8']}},{'meta.tag':{'$not':{'$elemMatch':{'system':'https://fhir.icanbwell.com/4_0_0/CodeSystem/server-behavior','code':'hidden'}}}}]},{'$and':[{'meta.security':{'$elemMatch':{'system':'https://www.icanbwell.com/connectionType','code':'hipaa'}}},{'subject._uuid':'Patient/d4c639de-f892-5b89-a63c-f64f0f2d69d1'},{'meta.tag':{'$not':{'$elemMatch':{'system':'https://fhir.icanbwell.com/4_0_0/CodeSystem/server-behavior','code':'hidden'}}}}]}]}, {'_id':0}) | db.RelatedPerson_4_0_0.find({'$or':[{'$and':[{'$or':[{'patient._uuid':{'$in':['Patient/bb7862e6-b7ac-470e-bde3-e85cee9d1ce6','Patient/bb7862e6-b7ac-470e-bde3-e85cee9d1ce7','Patient/bb7862e6-b7ac-470e-bde3-e85cee9d1ce8','Patient/d4c639de-f892-5b89-a63c-f64f0f2d69d1']}},{'patient._sourceId':'Patient/person.c12345'}]},{'meta.tag':{'$not':{'$elemMatch':{'system':'https://fhir.icanbwell.com/4_0_0/CodeSystem/server-behavior','code':'hidden'}}}},{'meta.security':{'$elemMatch':{'system':'https://www.icanbwell.com/access','code':'client'}}}]},{'$and':[{'meta.security':{'$elemMatch':{'system':'https://www.icanbwell.com/connectionType','code':'proa'}}},{'patient._uuid':{'$in':['Patient/bb7862e6-b7ac-470e-bde3-e85cee9d1ce7','Patient/bb7862e6-b7ac-470e-bde3-e85cee9d1ce8']}},{'meta.tag':{'$not':{'$elemMatch':{'system':'https://fhir.icanbwell.com/4_0_0/CodeSystem/server-behavior','code':'hidden'}}}}]},{'$and':[{'meta.security':{'$elemMatch':{'system':'https://www.icanbwell.com/connectionType','code':'hipaa'}}},{'patient._uuid':'Patient/d4c639de-f892-5b89-a63c-f64f0f2d69d1'},{'meta.tag':{'$not':{'$elemMatch':{'system':'https://fhir.icanbwell.com/4_0_0/CodeSystem/server-behavior','code':'hidden'}}}}]}]}, {'_id':0}) | db.RequestGroup_4_0_0.find({'$or':[{'$and':[{'$or':[{'subject._uuid':{'$in':['Patient/bb7862e6-b7ac-470e-bde3-e85cee9d1ce6','Patient/bb7862e6-b7ac-470e-bde3-e85cee9d1ce7','Patient/bb7862e6-b7ac-470e-bde3-e85cee9d1ce8','Patient/d4c639de-f892-5b89-a63c-f64f0f2d69d1']}},{'subject._sourceId':'Patient/person.c12345'}]},{'meta.tag':{'$not':{'$elemMatch':{'system':'https://fhir.icanbwell.com/4_0_0/CodeSystem/server-behavior','code':'hidden'}}}},{'meta.security':{'$elemMatch':{'system':'https://www.icanbwell.com/access','code':'client'}}}]},{'$and':[{'meta.security':{'$elemMatch':{'system':'https://www.icanbwell.com/connectionType','code':'proa'}}},{'subject._uuid':{'$in':['Patient/bb7862e6-b7ac-470e-bde3-e85cee9d1ce7','Patient/bb7862e6-b7ac-470e-bde3-e85cee9d1ce8']}},{'meta.tag':{'$not':{'$elemMatch':{'system':'https://fhir.icanbwell.com/4_0_0/CodeSystem/server-behavior','code':'hidden'}}}}]},{'$and':[{'meta.security':{'$elemMatch':{'system':'https://www.icanbwell.com/connectionType','code':'hipaa'}}},{'subject._uuid':'Patient/d4c639de-f892-5b89-a63c-f64f0f2d69d1'},{'meta.tag':{'$not':{'$elemMatch':{'system':'https://fhir.icanbwell.com/4_0_0/CodeSystem/server-behavior','code':'hidden'}}}}]}]}, {'_id':0}) | db.ResearchSubject_4_0_0.find({'$or':[{'$and':[{'$or':[{'individual._uuid':{'$in':['Patient/bb7862e6-b7ac-470e-bde3-e85cee9d1ce6','Patient/bb7862e6-b7ac-470e-bde3-e85cee9d1ce7','Patient/bb7862e6-b7ac-470e-bde3-e85cee9d1ce8','Patient/d4c639de-f892-5b89-a63c-f64f0f2d69d1']}},{'individual._sourceId':'Patient/person.c12345'}]},{'meta.tag':{'$not':{'$elemMatch':{'system':'https://fhir.icanbwell.com/4_0_0/CodeSystem/server-behavior','code':'hidden'}}}},{'meta.security':{'$elemMatch':{'system':'https://www.icanbwell.com/access','code':'client'}}}]},{'$and':[{'meta.security':{'$elemMatch':{'system':'https://www.icanbwell.com/connectionType','code':'proa'}}},{'individual._uuid':{'$in':['Patient/bb7862e6-b7ac-470e-bde3-e85cee9d1ce7','Patient/bb7862e6-b7ac-470e-bde3-e85cee9d1ce8']}},{'meta.tag':{'$not':{'$elemMatch':{'system':'https://fhir.icanbwell.com/4_0_0/CodeSystem/server-behavior','code':'hidden'}}}}]},{'$and':[{'meta.security':{'$elemMatch':{'system':'https://www.icanbwell.com/connectionType','code':'hipaa'}}},{'individual._uuid':'Patient/d4c639de-f892-5b89-a63c-f64f0f2d69d1'},{'meta.tag':{'$not':{'$elemMatch':{'system':'https://fhir.icanbwell.com/4_0_0/CodeSystem/server-behavior','code':'hidden'}}}}]}]}, {'_id':0}) | db.RiskAssessment_4_0_0.find({'$or':[{'$and':[{'$or':[{'subject._uuid':{'$in':['Patient/bb7862e6-b7ac-470e-bde3-e85cee9d1ce6','Patient/bb7862e6-b7ac-470e-bde3-e85cee9d1ce7','Patient/bb7862e6-b7ac-470e-bde3-e85cee9d1ce8','Patient/d4c639de-f892-5b89-a63c-f64f0f2d69d1']}},{'subject._sourceId':'Patient/person.c12345'}]},{'meta.tag':{'$not':{'$elemMatch':{'system':'https://fhir.icanbwell.com/4_0_0/CodeSystem/server-behavior','code':'hidden'}}}},{'meta.security':{'$elemMatch':{'system':'https://www.icanbwell.com/access','code':'client'}}}]},{'$and':[{'meta.security':{'$elemMatch':{'system':'https://www.icanbwell.com/connectionType','code':'proa'}}},{'subject._uuid':{'$in':['Patient/bb7862e6-b7ac-470e-bde3-e85cee9d1ce7','Patient/bb7862e6-b7ac-470e-bde3-e85cee9d1ce8']}},{'meta.tag':{'$not':{'$elemMatch':{'system':'https://fhir.icanbwell.com/4_0_0/CodeSystem/server-behavior','code':'hidden'}}}}]},{'$and':[{'meta.security':{'$elemMatch':{'system':'https://www.icanbwell.com/connectionType','code':'hipaa'}}},{'subject._uuid':'Patient/d4c639de-f892-5b89-a63c-f64f0f2d69d1'},{'meta.tag':{'$not':{'$elemMatch':{'system':'https://fhir.icanbwell.com/4_0_0/CodeSystem/server-behavior','code':'hidden'}}}}]}]}, {'_id':0}) | db.Schedule_4_0_0.find({'$or':[{'$and':[{'$or':[{'actor._uuid':{'$in':['Patient/bb7862e6-b7ac-470e-bde3-e85cee9d1ce6','Patient/bb7862e6-b7ac-470e-bde3-e85cee9d1ce7','Patient/bb7862e6-b7ac-470e-bde3-e85cee9d1ce8','Patient/d4c639de-f892-5b89-a63c-f64f0f2d69d1']}},{'actor._sourceId':'Patient/person.c12345'}]},{'meta.tag':{'$not':{'$elemMatch':{'system':'https://fhir.icanbwell.com/4_0_0/CodeSystem/server-behavior','code':'hidden'}}}},{'meta.security':{'$elemMatch':{'system':'https://www.icanbwell.com/access','code':'client'}}}]},{'$and':[{'meta.security':{'$elemMatch':{'system':'https://www.icanbwell.com/connectionType','code':'proa'}}},{'actor._uuid':{'$in':['Patient/bb7862e6-b7ac-470e-bde3-e85cee9d1ce7','Patient/bb7862e6-b7ac-470e-bde3-e85cee9d1ce8']}},{'meta.tag':{'$not':{'$elemMatch':{'system':'https://fhir.icanbwell.com/4_0_0/CodeSystem/server-behavior','code':'hidden'}}}}]},{'$and':[{'meta.security':{'$elemMatch':{'system':'https://www.icanbwell.com/connectionType','code':'hipaa'}}},{'actor._uuid':'Patient/d4c639de-f892-5b89-a63c-f64f0f2d69d1'},{'meta.tag':{'$not':{'$elemMatch':{'system':'https://fhir.icanbwell.com/4_0_0/CodeSystem/server-behavior','code':'hidden'}}}}]}]}, {'_id':0}) | db.ServiceRequest_4_0_0.find({'$or':[{'$and':[{'$or':[{'subject._uuid':{'$in':['Patient/bb7862e6-b7ac-470e-bde3-e85cee9d1ce6','Patient/bb7862e6-b7ac-470e-bde3-e85cee9d1ce7','Patient/bb7862e6-b7ac-470e-bde3-e85cee9d1ce8','Patient/d4c639de-f892-5b89-a63c-f64f0f2d69d1']}},{'subject._sourceId':'Patient/person.c12345'}]},{'meta.tag':{'$not':{'$elemMatch':{'system':'https://fhir.icanbwell.com/4_0_0/CodeSystem/server-behavior','code':'hidden'}}}},{'meta.security':{'$elemMatch':{'system':'https://www.icanbwell.com/access','code':'client'}}}]},{'$and':[{'meta.security':{'$elemMatch':{'system':'https://www.icanbwell.com/connectionType','code':'proa'}}},{'subject._uuid':{'$in':['Patient/bb7862e6-b7ac-470e-bde3-e85cee9d1ce7','Patient/bb7862e6-b7ac-470e-bde3-e85cee9d1ce8']}},{'meta.tag':{'$not':{'$elemMatch':{'system':'https://fhir.icanbwell.com/4_0_0/CodeSystem/server-behavior','code':'hidden'}}}}]},{'$and':[{'meta.security':{'$elemMatch':{'system':'https://www.icanbwell.com/connectionType','code':'hipaa'}}},{'subject._uuid':'Patient/d4c639de-f892-5b89-a63c-f64f0f2d69d1'},{'meta.tag':{'$not':{'$elemMatch':{'system':'https://fhir.icanbwell.com/4_0_0/CodeSystem/server-behavior','code':'hidden'}}}}]}]}, {'_id':0}) | db.Specimen_4_0_0.find({'$or':[{'$and':[{'$or':[{'subject._uuid':{'$in':['Patient/bb7862e6-b7ac-470e-bde3-e85cee9d1ce6','Patient/bb7862e6-b7ac-470e-bde3-e85cee9d1ce7','Patient/bb7862e6-b7ac-470e-bde3-e85cee9d1ce8','Patient/d4c639de-f892-5b89-a63c-f64f0f2d69d1']}},{'subject._sourceId':'Patient/person.c12345'}]},{'meta.tag':{'$not':{'$elemMatch':{'system':'https://fhir.icanbwell.com/4_0_0/CodeSystem/server-behavior','code':'hidden'}}}},{'meta.security':{'$elemMatch':{'system':'https://www.icanbwell.com/access','code':'client'}}}]},{'$and':[{'meta.security':{'$elemMatch':{'system':'https://www.icanbwell.com/connectionType','code':'proa'}}},{'subject._uuid':{'$in':['Patient/bb7862e6-b7ac-470e-bde3-e85cee9d1ce7','Patient/bb7862e6-b7ac-470e-bde3-e85cee9d1ce8']}},{'meta.tag':{'$not':{'$elemMatch':{'system':'https://fhir.icanbwell.com/4_0_0/CodeSystem/server-behavior','code':'hidden'}}}}]},{'$and':[{'meta.security':{'$elemMatch':{'system':'https://www.icanbwell.com/connectionType','code':'hipaa'}}},{'subject._uuid':'Patient/d4c639de-f892-5b89-a63c-f64f0f2d69d1'},{'meta.tag':{'$not':{'$elemMatch':{'system':'https://fhir.icanbwell.com/4_0_0/CodeSystem/server-behavior','code':'hidden'}}}}]}]}, {'_id':0}) | db.Subscription_4_0_0.find({'$or':[{'$and':[{'meta.tag':{'$not':{'$elemMatch':{'system':'https://fhir.icanbwell.com/4_0_0/CodeSystem/server-behavior','code':'hidden'}}}},{'meta.security':{'$elemMatch':{'system':'https://www.icanbwell.com/access','code':'client'}}}]},{'$and':[{'meta.tag':{'$not':{'$elemMatch':{'system':'https://fhir.icanbwell.com/4_0_0/CodeSystem/server-behavior','code':'hidden'}}}},{'meta.security':{'$elemMatch':{'system':'https://www.icanbwell.com/connectionType','code':'proa'}}}]},{'$and':[{'meta.tag':{'$not':{'$elemMatch':{'system':'https://fhir.icanbwell.com/4_0_0/CodeSystem/server-behavior','code':'hidden'}}}},{'meta.security':{'$elemMatch':{'system':'https://www.icanbwell.com/connectionType','code':'hipaa'}}}]},{'$and':[{'extension':{'$elemMatch':{'url':'https://icanbwell.com/codes/source_patient_id','valueString':'bb7862e6-b7ac-470e-bde3-e85cee9d1ce6'}}},{'extension':{'$elemMatch':{'url':'https://icanbwell.com/codes/service_slug','valueString':'client'}}}]},{'$and':[{'extension':{'$elemMatch':{'url':'https://icanbwell.com/codes/source_patient_id','valueString':'bb7862e6-b7ac-470e-bde3-e85cee9d1ce7'}}},{'extension':{'$elemMatch':{'url':'https://icanbwell.com/codes/service_slug','valueString':'health-service'}}}]},{'$and':[{'extension':{'$elemMatch':{'url':'https://icanbwell.com/codes/source_patient_id','valueString':'bb7862e6-b7ac-470e-bde3-e85cee9d1ce8'}}},{'extension':{'$elemMatch':{'url':'https://icanbwell.com/codes/service_slug','valueString':'health-service-1'}}}]},{'$and':[{'extension':{'$elemMatch':{'url':'https://icanbwell.com/codes/source_patient_id','valueString':'d4c639de-f892-5b89-a63c-f64f0f2d69d1'}}},{'extension':{'$elemMatch':{'url':'https://icanbwell.com/codes/service_slug','valueString':'health-service-2'}}}]}]}, {'_id':0}) | db.SubscriptionStatus_4_0_0.find({'$or':[{'$and':[{'meta.tag':{'$not':{'$elemMatch':{'system':'https://fhir.icanbwell.com/4_0_0/CodeSystem/server-behavior','code':'hidden'}}}},{'meta.security':{'$elemMatch':{'system':'https://www.icanbwell.com/access','code':'client'}}}]},{'$and':[{'meta.tag':{'$not':{'$elemMatch':{'system':'https://fhir.icanbwell.com/4_0_0/CodeSystem/server-behavior','code':'hidden'}}}},{'meta.security':{'$elemMatch':{'system':'https://www.icanbwell.com/connectionType','code':'proa'}}}]},{'$and':[{'meta.tag':{'$not':{'$elemMatch':{'system':'https://fhir.icanbwell.com/4_0_0/CodeSystem/server-behavior','code':'hidden'}}}},{'meta.security':{'$elemMatch':{'system':'https://www.icanbwell.com/connectionType','code':'hipaa'}}}]},{'$and':[{'extension':{'$elemMatch':{'url':'https://icanbwell.com/codes/source_patient_id','valueString':'bb7862e6-b7ac-470e-bde3-e85cee9d1ce6'}}},{'extension':{'$elemMatch':{'url':'https://icanbwell.com/codes/service_slug','valueString':'client'}}}]},{'$and':[{'extension':{'$elemMatch':{'url':'https://icanbwell.com/codes/source_patient_id','valueString':'bb7862e6-b7ac-470e-bde3-e85cee9d1ce7'}}},{'extension':{'$elemMatch':{'url':'https://icanbwell.com/codes/service_slug','valueString':'health-service'}}}]},{'$and':[{'extension':{'$elemMatch':{'url':'https://icanbwell.com/codes/source_patient_id','valueString':'bb7862e6-b7ac-470e-bde3-e85cee9d1ce8'}}},{'extension':{'$elemMatch':{'url':'https://icanbwell.com/codes/service_slug','valueString':'health-service-1'}}}]},{'$and':[{'extension':{'$elemMatch':{'url':'https://icanbwell.com/codes/source_patient_id','valueString':'d4c639de-f892-5b89-a63c-f64f0f2d69d1'}}},{'extension':{'$elemMatch':{'url':'https://icanbwell.com/codes/service_slug','valueString':'health-service-2'}}}]}]}, {'_id':0}) | db.SubscriptionTopic_4_0_0.find({'$or':[{'$and':[{'meta.tag':{'$not':{'$elemMatch':{'system':'https://fhir.icanbwell.com/4_0_0/CodeSystem/server-behavior','code':'hidden'}}}},{'meta.security':{'$elemMatch':{'system':'https://www.icanbwell.com/access','code':'client'}}}]},{'$and':[{'meta.tag':{'$not':{'$elemMatch':{'system':'https://fhir.icanbwell.com/4_0_0/CodeSystem/server-behavior','code':'hidden'}}}},{'meta.security':{'$elemMatch':{'system':'https://www.icanbwell.com/connectionType','code':'proa'}}}]},{'$and':[{'meta.tag':{'$not':{'$elemMatch':{'system':'https://fhir.icanbwell.com/4_0_0/CodeSystem/server-behavior','code':'hidden'}}}},{'meta.security':{'$elemMatch':{'system':'https://www.icanbwell.com/connectionType','code':'hipaa'}}}]},{'$and':[{'identifier':{'$elemMatch':{'system':'https://icanbwell.com/codes/source_patient_id','value':'bb7862e6-b7ac-470e-bde3-e85cee9d1ce6'}}},{'identifier':{'$elemMatch':{'system':'https://icanbwell.com/codes/service_slug','value':'client'}}}]},{'$and':[{'identifier':{'$elemMatch':{'system':'https://icanbwell.com/codes/source_patient_id','value':'bb7862e6-b7ac-470e-bde3-e85cee9d1ce7'}}},{'identifier':{'$elemMatch':{'system':'https://icanbwell.com/codes/service_slug','value':'health-service'}}}]},{'$and':[{'identifier':{'$elemMatch':{'system':'https://icanbwell.com/codes/source_patient_id','value':'bb7862e6-b7ac-470e-bde3-e85cee9d1ce8'}}},{'identifier':{'$elemMatch':{'system':'https://icanbwell.com/codes/service_slug','value':'health-service-1'}}}]},{'$and':[{'identifier':{'$elemMatch':{'system':'https://icanbwell.com/codes/source_patient_id','value':'d4c639de-f892-5b89-a63c-f64f0f2d69d1'}}},{'identifier':{'$elemMatch':{'system':'https://icanbwell.com/codes/service_slug','value':'health-service-2'}}}]}]}, {'_id':0}) | db.SupplyDelivery_4_0_0.find({'$or':[{'$and':[{'$or':[{'patient._uuid':{'$in':['Patient/bb7862e6-b7ac-470e-bde3-e85cee9d1ce6','Patient/bb7862e6-b7ac-470e-bde3-e85cee9d1ce7','Patient/bb7862e6-b7ac-470e-bde3-e85cee9d1ce8','Patient/d4c639de-f892-5b89-a63c-f64f0f2d69d1']}},{'patient._sourceId':'Patient/person.c12345'}]},{'meta.tag':{'$not':{'$elemMatch':{'system':'https://fhir.icanbwell.com/4_0_0/CodeSystem/server-behavior','code':'hidden'}}}},{'meta.security':{'$elemMatch':{'system':'https://www.icanbwell.com/access','code':'client'}}}]},{'$and':[{'meta.security':{'$elemMatch':{'system':'https://www.icanbwell.com/connectionType','code':'proa'}}},{'patient._uuid':{'$in':['Patient/bb7862e6-b7ac-470e-bde3-e85cee9d1ce7','Patient/bb7862e6-b7ac-470e-bde3-e85cee9d1ce8']}},{'meta.tag':{'$not':{'$elemMatch':{'system':'https://fhir.icanbwell.com/4_0_0/CodeSystem/server-behavior','code':'hidden'}}}}]},{'$and':[{'meta.security':{'$elemMatch':{'system':'https://www.icanbwell.com/connectionType','code':'hipaa'}}},{'patient._uuid':'Patient/d4c639de-f892-5b89-a63c-f64f0f2d69d1'},{'meta.tag':{'$not':{'$elemMatch':{'system':'https://fhir.icanbwell.com/4_0_0/CodeSystem/server-behavior','code':'hidden'}}}}]}]}, {'_id':0}) | db.SupplyRequest_4_0_0.find({'$or':[{'$and':[{'$or':[{'requester._uuid':{'$in':['Patient/bb7862e6-b7ac-470e-bde3-e85cee9d1ce6','Patient/bb7862e6-b7ac-470e-bde3-e85cee9d1ce7','Patient/bb7862e6-b7ac-470e-bde3-e85cee9d1ce8','Patient/d4c639de-f892-5b89-a63c-f64f0f2d69d1']}},{'requester._sourceId':'Patient/person.c12345'}]},{'meta.tag':{'$not':{'$elemMatch':{'system':'https://fhir.icanbwell.com/4_0_0/CodeSystem/server-behavior','code':'hidden'}}}},{'meta.security':{'$elemMatch':{'system':'https://www.icanbwell.com/access','code':'client'}}}]},{'$and':[{'meta.security':{'$elemMatch':{'system':'https://www.icanbwell.com/connectionType','code':'proa'}}},{'requester._uuid':{'$in':['Patient/bb7862e6-b7ac-470e-bde3-e85cee9d1ce7','Patient/bb7862e6-b7ac-470e-bde3-e85cee9d1ce8']}},{'meta.tag':{'$not':{'$elemMatch':{'system':'https://fhir.icanbwell.com/4_0_0/CodeSystem/server-behavior','code':'hidden'}}}}]},{'$and':[{'meta.security':{'$elemMatch':{'system':'https://www.icanbwell.com/connectionType','code':'hipaa'}}},{'requester._uuid':'Patient/d4c639de-f892-5b89-a63c-f64f0f2d69d1'},{'meta.tag':{'$not':{'$elemMatch':{'system':'https://fhir.icanbwell.com/4_0_0/CodeSystem/server-behavior','code':'hidden'}}}}]}]}, {'_id':0}) | db.Task_4_0_0.find({'$or':[{'$and':[{'$or':[{'for._uuid':{'$in':['Patient/bb7862e6-b7ac-470e-bde3-e85cee9d1ce6','Patient/bb7862e6-b7ac-470e-bde3-e85cee9d1ce7','Patient/bb7862e6-b7ac-470e-bde3-e85cee9d1ce8','Patient/d4c639de-f892-5b89-a63c-f64f0f2d69d1']}},{'for._sourceId':'Patient/person.c12345'}]},{'meta.tag':{'$not':{'$elemMatch':{'system':'https://fhir.icanbwell.com/4_0_0/CodeSystem/server-behavior','code':'hidden'}}}},{'meta.security':{'$elemMatch':{'system':'https://www.icanbwell.com/access','code':'client'}}}]},{'$and':[{'meta.security':{'$elemMatch':{'system':'https://www.icanbwell.com/connectionType','code':'proa'}}},{'for._uuid':{'$in':['Patient/bb7862e6-b7ac-470e-bde3-e85cee9d1ce7','Patient/bb7862e6-b7ac-470e-bde3-e85cee9d1ce8']}},{'meta.tag':{'$not':{'$elemMatch':{'system':'https://fhir.icanbwell.com/4_0_0/CodeSystem/server-behavior','code':'hidden'}}}}]},{'$and':[{'meta.security':{'$elemMatch':{'system':'https://www.icanbwell.com/connectionType','code':'hipaa'}}},{'for._uuid':'Patient/d4c639de-f892-5b89-a63c-f64f0f2d69d1'},{'meta.tag':{'$not':{'$elemMatch':{'system':'https://fhir.icanbwell.com/4_0_0/CodeSystem/server-behavior','code':'hidden'}}}}]}]}, {'_id':0}) | db.VisionPrescription_4_0_0.find({'$or':[{'$and':[{'$or':[{'patient._uuid':{'$in':['Patient/bb7862e6-b7ac-470e-bde3-e85cee9d1ce6','Patient/bb7862e6-b7ac-470e-bde3-e85cee9d1ce7','Patient/bb7862e6-b7ac-470e-bde3-e85cee9d1ce8','Patient/d4c639de-f892-5b89-a63c-f64f0f2d69d1']}},{'patient._sourceId':'Patient/person.c12345'}]},{'meta.tag':{'$not':{'$elemMatch':{'system':'https://fhir.icanbwell.com/4_0_0/CodeSystem/server-behavior','code':'hidden'}}}},{'meta.security':{'$elemMatch':{'system':'https://www.icanbwell.com/access','code':'client'}}}]},{'$and':[{'meta.security':{'$elemMatch':{'system':'https://www.icanbwell.com/connectionType','code':'proa'}}},{'patient._uuid':{'$in':['Patient/bb7862e6-b7ac-470e-bde3-e85cee9d1ce7','Patient/bb7862e6-b7ac-470e-bde3-e85cee9d1ce8']}},{'meta.tag':{'$not':{'$elemMatch':{'system':'https://fhir.icanbwell.com/4_0_0/CodeSystem/server-behavior','code':'hidden'}}}}]},{'$and':[{'meta.security':{'$elemMatch':{'system':'https://www.icanbwell.com/connectionType','code':'hipaa'}}},{'patient._uuid':'Patient/d4c639de-f892-5b89-a63c-f64f0f2d69d1'},{'meta.tag':{'$not':{'$elemMatch':{'system':'https://fhir.icanbwell.com/4_0_0/CodeSystem/server-behavior','code':'hidden'}}}}]}]}, {'_id':0})"
      },
      {
        "system": "https://www.icanbwell.com/queryCollection",
        "code": "Patient_4_0_0|Account_4_0_0|AdverseEvent_4_0_0|AllergyIntolerance_4_0_0|Appointment_4_0_0|AppointmentResponse_4_0_0|BiologicallyDerivedProduct_4_0_0|Basic_4_0_0|BodyStructure_4_0_0|CarePlan_4_0_0|CareTeam_4_0_0|ChargeItem_4_0_0|Claim_4_0_0|ClaimResponse_4_0_0|ClinicalImpression_4_0_0|Communication_4_0_0|CommunicationRequest_4_0_0|Composition_4_0_0|Condition_4_0_0|Consent_4_0_0|Contract_4_0_0|Coverage_4_0_0|CoverageEligibilityRequest_4_0_0|CoverageEligibilityResponse_4_0_0|DetectedIssue_4_0_0|Device_4_0_0|DeviceRequest_4_0_0|DeviceUseStatement_4_0_0|DiagnosticReport_4_0_0|DocumentManifest_4_0_0|DocumentReference_4_0_0|Encounter_4_0_0|EnrollmentRequest_4_0_0|EpisodeOfCare_4_0_0|ExplanationOfBenefit_4_0_0|FamilyMemberHistory_4_0_0|Flag_4_0_0|Goal_4_0_0|Group_4_0_0|GuidanceResponse_4_0_0|ImagingStudy_4_0_0|Immunization_4_0_0|ImmunizationEvaluation_4_0_0|ImmunizationRecommendation_4_0_0|Invoice_4_0_0|Linkage_4_0_0|List_4_0_0|MeasureReport_4_0_0|Media_4_0_0|MedicationAdministration_4_0_0|MedicationDispense_4_0_0|MedicationRequest_4_0_0|MedicationStatement_4_0_0|MolecularSequence_4_0_0|NutritionOrder_4_0_0|Observation_4_0_0|Patient_4_0_0|PaymentNotice_4_0_0|Person_4_0_0|Procedure_4_0_0|Provenance_4_0_0|QuestionnaireResponse_4_0_0|RelatedPerson_4_0_0|RequestGroup_4_0_0|ResearchSubject_4_0_0|RiskAssessment_4_0_0|Schedule_4_0_0|ServiceRequest_4_0_0|Specimen_4_0_0|Subscription_4_0_0|SubscriptionStatus_4_0_0|SubscriptionTopic_4_0_0|SupplyDelivery_4_0_0|SupplyRequest_4_0_0|Task_4_0_0|VisionPrescription_4_0_0"
      },
      {
        "system": "https://www.icanbwell.com/queryOptions",
        "display": "[{'projection':{'_id':0}},{'projection':{'_id':0}},{'projection':{'_id':0}},{'projection':{'_id':0}},{'projection':{'_id':0}},{'projection':{'_id':0}},{'projection':{'_id':0}},{'projection':{'_id':0}},{'projection':{'_id':0}},{'projection':{'_id':0}},{'projection':{'_id':0}},{'projection':{'_id':0}},{'projection':{'_id':0}},{'projection':{'_id':0}},{'projection':{'_id':0}},{'projection':{'_id':0}},{'projection':{'_id':0}},{'projection':{'_id':0}},{'projection':{'_id':0}},{'projection':{'_id':0}},{'projection':{'_id':0}},{'projection':{'_id':0}},{'projection':{'_id':0}},{'projection':{'_id':0}},{'projection':{'_id':0}},{'projection':{'_id':0}},{'projection':{'_id':0}},{'projection':{'_id':0}},{'projection':{'_id':0}},{'projection':{'_id':0}},{'projection':{'_id':0}},{'projection':{'_id':0}},{'projection':{'_id':0}},{'projection':{'_id':0}},{'projection':{'_id':0}},{'projection':{'_id':0}},{'projection':{'_id':0}},{'projection':{'_id':0}},{'projection':{'_id':0}},{'projection':{'_id':0}},{'projection':{'_id':0}},{'projection':{'_id':0}},{'projection':{'_id':0}},{'projection':{'_id':0}},{'projection':{'_id':0}},{'projection':{'_id':0}},{'projection':{'_id':0}},{'projection':{'_id':0}},{'projection':{'_id':0}},{'projection':{'_id':0}},{'projection':{'_id':0}},{'projection':{'_id':0}},{'projection':{'_id':0}},{'projection':{'_id':0}},{'projection':{'_id':0}},{'projection':{'_id':0}},{'projection':{'_id':0}},{'projection':{'_id':0}},{'projection':{'_id':0}},{'projection':{'_id':0}},{'projection':{'_id':0}},{'projection':{'_id':0}},{'projection':{'_id':0}},{'projection':{'_id':0}},{'projection':{'_id':0}},{'projection':{'_id':0}},{'projection':{'_id':0}},{'projection':{'_id':0}},{'projection':{'_id':0}},{'projection':{'_id':0}},{'projection':{'_id':0}},{'projection':{'_id':0}},{'projection':{'_id':0}},{'projection':{'_id':0}},{'projection':{'_id':0}},{'projection':{'_id':0}}]"
      },
      {
        "system": "https://www.icanbwell.com/queryFields",
        "display": "[]"
      },
      {
        "system": "https://www.icanbwell.com/queryTime"
      },
      {
        "system": "https://www.icanbwell.com/queryOptimization",
        "display": "{'useTwoStepSearchOptimization':undefined}"
      },
      {
        "system": "https://www.icanbwell.com/queryExplain"
      },
      {
        "system": "https://www.icanbwell.com/queryExplainSimple"
      }
    ]
  }
}
