{
  "resourceType": "Bundle",
  "id": "bundle-example",
  "type": "collection",
  "timestamp": "2022-02-02T09:30:51.5151Z",
  "entry": [
    {
      "fullUrl": "https://fhir.staging.bwell.zone/4_0_0/Practitioner/1003059437",
      "resource": {
        "resourceType": "Practitioner",
        "id": "1003059437",
        "meta": {
          "versionId": "12",
          "lastUpdated": "2022-01-19T16:27:17.000Z",
          "source": "http://myhealthsystemhealth.org/provider",
          "security": [
            {
              "system": "https://www.icanbwell.com/access",
              "code": "myhealthsystem"
            },
            {
              "system": "https://www.icanbwell.com/owner",
              "code": "myhealthsystem"
            }
          ]
        },
        "contained": [
          {
            "resourceType": "PractitionerRole",
            "id": "1003059437-GP6-GGIM",
            "meta": {
              "versionId": "1",
              "lastUpdated": "2022-01-13T21:11:10.000Z",
              "source": "http://myhealthsystemhealth.org/provider",
              "security": [
                {
                  "system": "https://www.icanbwell.com/access",
                  "code": "myhealthsystem"
                },
                {
                  "system": "https://www.icanbwell.com/owner",
                  "code": "myhealthsystem"
                }
              ]
            },
            "extension": [
              {
                "id": "new-patients-1",
                "extension": [
                  {
                    "id": "acceptingpatients",
                    "url": "acceptingPatients",
                    "valueCodeableConcept": {
                      "coding": [
                        {
                          "system": "https://build.fhir.org/ig/HL7/davinci-pdex-plan-net/CodeSystem-AcceptingPatientsCS.html",
                          "code": "newpt"
                        }
                      ]
                    }
                  },
                  {
                    "id": "agerange",
                    "url": "ageRange",
                    "valueRange": {
                      "low": {
                        "value": 18,
                        "unit": "years"
                      },
                      "high": {
                        "value": 100,
                        "unit": "years"
                      }
                    }
                  }
                ],
                "url": "http://hl7.org/fhir/us/davinci-pdex-plan-net/StructureDefinition/newpatients"
              }
            ],
            "active": true,
            "practitioner": {
              "reference": "Practitioner/1003059437"
            },
            "organization": {
              "reference": "Organization/myhealthsystem-Alias-GP6-GGIM"
            },
            "code": [
              {
                "coding": [
                  {
                    "system": "http://terminology.hl7.org/CodeSystem/practitioner-role",
                    "code": "doctor",
                    "display": "Doctor"
                  }
                ],
                "text": "Doctor"
              }
            ],
            "specialty": [
              {
                "id": "myhealthsystem-pcp",
                "coding": [
                  {
                    "id": "specialty-pcp",
                    "system": "http://nucc.org/provider-taxonomy",
                    "code": "261QP2300X",
                    "display": "Primary Care"
                  }
                ],
                "text": "Primary Care Flag"
              }
            ],
            "location": [
              {
                "reference": "Location/myhealthsystem-Alias-GP6-GGIM"
              }
            ]
          },
          {
            "resourceType": "Organization",
            "id": "myhealthsystem-Alias-GP6-GGIM",
            "meta": {
              "versionId": "1",
              "lastUpdated": "2022-01-19T15:58:12.000Z",
              "source": "http://myhealthsystemhealth.org/provider",
              "security": [
                {
                  "system": "https://www.icanbwell.com/access",
                  "code": "myhealthsystem"
                },
                {
                  "system": "https://www.icanbwell.com/owner",
                  "code": "myhealthsystem"
                }
              ]
            },
            "extension": [
              {
                "extension": [
                  {
                    "url": "https://raw.githubusercontent.com/imranq2/SparkAutoMapper.FHIR/main/StructureDefinition/longitude",
                    "valueDecimal": -77.07526
                  },
                  {
                    "url": "https://raw.githubusercontent.com/imranq2/SparkAutoMapper.FHIR/main/StructureDefinition/latitude",
                    "valueDecimal": 38.908993
                  }
                ],
                "url": "https://raw.githubusercontent.com/imranq2/SparkAutoMapper.FHIR/main/StructureDefinition/position"
              }
            ],
            "identifier": [
              {
                "use": "usual",
                "system": "http://myhealthsystemhealth.org",
                "value": "GP6-GGIM"
              }
            ],
            "active": true,
            "type": [
              {
                "coding": [
                  {
                    "system": "http://terminology.hl7.org/CodeSystem/organization-type",
                    "code": "prov",
                    "display": "Healthcare Provider"
                  }
                ],
                "text": "Healthcare Organization"
              }
            ],
            "name": "myhealthsystem Internal Medicine at Georgetown University Hospital",
            "alias": [
              "myhealthsystem Internal Medicine at Georgetown Univ Hospital"
            ],
            "telecom": [
              {
                "id": "amp-office-phone",
                "system": "phone",
                "value": "(999) 999-9999",
                "use": "work",
                "rank": 1
              },
              {
                "id": "amp-office-tax",
                "system": "fax",
                "value": "(999) 999-9999",
                "use": "work",
                "rank": 2
              }
            ],
            "address": [
              {
                "line": [
                  "1 Street # 6"
                ],
                "city": "Washington",
                "state": "DC",
                "postalCode": "20007"
              }
            ],
            "partOf": {
              "reference": "Organization/myhealthsystem-83544006",
              "display": "myhealthsystem Internal Medicine at Georgetown Univ Hospital"
            },
            "contact": [
              {
                "purpose": {
                  "coding": [
                    {
                      "system": "http://myhealthsystemhealth.org",
                      "code": "Central Scheduling"
                    }
                  ]
                },
                "telecom": [
                  {
                    "id": "amp-central-scheduling-phone",
                    "system": "phone",
                    "value": "(999) 999-9999",
                    "use": "work",
                    "rank": 1
                  }
                ]
              }
            ]
          },
          {
            "resourceType": "Location",
            "id": "myhealthsystem-Alias-GP6-GGIM",
            "meta": {
              "versionId": "13",
              "lastUpdated": "2022-01-19T15:55:23.000Z",
              "source": "http://myhealthsystemhealth.org/provider_appointment_type",
              "security": [
                {
                  "system": "https://www.icanbwell.com/access",
                  "code": "myhealthsystem"
                },
                {
                  "system": "https://www.icanbwell.com/owner",
                  "code": "myhealthsystem"
                }
              ]
            },
            "identifier": [
              {
                "type": {
                  "coding": [
                    {
                      "system": "http://myhealthsystemhealth.org",
                      "code": "alias"
                    }
                  ],
                  "text": "Facility ID"
                },
                "system": "http://myhealthsystemhealth.org",
                "value": "GP6-GGIM"
              },
              {
                "type": {
                  "coding": [
                    {
                      "system": "http://terminology.hl7.org/CodeSystem/v2-0203",
                      "code": "FI"
                    }
                  ],
                  "text": "Facility Identifier"
                },
                "system": "http://myhealthsystemhealth.org",
                "value": "GP6"
              },
              {
                "type": {
                  "coding": [
                    {
                      "system": "http://terminology.hl7.org/CodeSystem/v2-0203",
                      "code": "XX"
                    }
                  ],
                  "text": "Organization Identifier"
                },
                "system": "http://myhealthsystemhealth.org",
                "value": "1043"
              },
              {
                "type": {
                  "coding": [
                    {
                      "system": "http://terminology.hl7.org/CodeSystem/v2-0203",
                      "code": "DeptMnem"
                    }
                  ],
                  "text": "Scheduling Department Mnem"
                },
                "system": "http://myhealthsystemhealth.org",
                "value": "GGIM"
              },
              {
                "type": {
                  "coding": [
                    {
                      "system": "http://terminology.hl7.org/CodeSystem/v2-0203",
                      "code": "DeptNo"
                    }
                  ],
                  "text": "Scheduling Department Number"
                },
                "system": "http://myhealthsystemhealth.org",
                "value": "1126"
              }
            ],
            "status": "active",
            "name": "myhealthsystem Internal Medicine at Georgetown University Hospital",
            "mode": "instance",
            "type": [
              {
                "coding": [
                  {
                    "system": "http://myhealthsystemhealth.org",
                    "code": "Primary Care and Student Health",
                    "display": "Primary Care and Student Health"
                  }
                ],
                "text": "practice speciality"
              }
            ],
            "telecom": [
              {
                "id": "amp-central-scheduling-phone",
                "system": "phone",
                "value": "(999) 999-9999",
                "use": "work",
                "rank": 1
              },
              {
                "id": "amp-office-phone",
                "system": "phone",
                "value": "(999) 999-9999",
                "use": "work",
                "rank": 2
              },
              {
                "id": "amp-office-fax",
                "system": "fax",
                "value": "(999) 999-9999",
                "use": "work",
                "rank": 3
              }
            ],
            "address": {
              "line": [
                "1 Street"
              ],
              "city": "Washington",
              "state": "DC",
              "postalCode": "20007"
            },
            "physicalType": {
              "coding": [
                {
                  "system": "http://terminology.hl7.org/CodeSystem/location-physical-type",
                  "code": "bu"
                }
              ]
            },
            "position": {
              "longitude": -77.07526,
              "latitude": 38.908993
            },
            "managingOrganization": {
              "reference": "Organization/myhealthsystem-Alias-GP6-GGIM"
            },
            "hoursOfOperation": [
              {
                "id": "mon-hours",
                "daysOfWeek": [
                  "mon"
                ],
                "openingTime": "08:00:00",
                "closingTime": "17:00:00"
              },
              {
                "id": "tue-hours",
                "daysOfWeek": [
                  "tue"
                ],
                "openingTime": "08:00:00",
                "closingTime": "17:00:00"
              },
              {
                "id": "wed-hours",
                "daysOfWeek": [
                  "wed"
                ],
                "openingTime": "08:00:00",
                "closingTime": "17:00:00"
              },
              {
                "id": "thu-hours",
                "daysOfWeek": [
                  "thu"
                ],
                "openingTime": "08:00:00",
                "closingTime": "17:00:00"
              },
              {
                "id": "fri-hours",
                "daysOfWeek": [
                  "fri"
                ],
                "openingTime": "08:00:00",
                "closingTime": "17:00:00"
              },
              {
                "id": "sun-hours",
                "daysOfWeek": [
                  "sun"
                ]
              }
            ]
          },
          {
            "resourceType": "Schedule",
            "id": "1003059437-GP6-GGIM",
            "meta": {
              "versionId": "1",
              "lastUpdated": "2022-01-13T21:15:24.000Z",
              "source": "http://myhealthsystemhealth.org/provider",
              "security": [
                {
                  "system": "https://www.icanbwell.com/access",
                  "code": "myhealthsystem"
                },
                {
                  "system": "https://www.icanbwell.com/owner",
                  "code": "myhealthsystem"
                }
              ]
            },
            "extension": [
              {
                "id": "providersearch-IDHP",
                "extension": [
                  {
                    "id": "forsystem",
                    "url": "forSystem",
                    "valueUri": "http://myhealthsystemhealth.org/IDHP"
                  },
                  {
                    "id": "searchable",
                    "url": "searchCharacteristic",
                    "valueCodeableConcept": {
                      "id": "1",
                      "coding": [
                        {
                          "id": "1",
                          "system": "https://raw.githubusercontent.com/imranq2/SparkAutoMapper.FHIR/main/ValueSet/search_characteristic",
                          "code": "searchable"
                        }
                      ],
                      "text": "Provider is searchable"
                    }
                  },
                  {
                    "id": "bookable",
                    "url": "searchCharacteristic",
                    "valueCodeableConcept": {
                      "id": "1",
                      "coding": [
                        {
                          "id": "1",
                          "system": "https://raw.githubusercontent.com/imranq2/SparkAutoMapper.FHIR/main/ValueSet/search_characteristic",
                          "code": "not-bookable"
                        }
                      ],
                      "text": "Provider is not online bookable"
                    }
                  }
                ],
                "url": "https://raw.githubusercontent.com/imranq2/SparkAutoMapper.FHIR/main/StructureDefinition/provider_search"
              }
            ],
            "active": true,
            "actor": [
              {
                "reference": "PractitionerRole/1003059437-GP6-GGIM"
              }
            ]
          },
          {
            "resourceType": "Group",
            "id": "myhealthsystem-Practitioner-Affiliates",
            "meta": {
              "versionId": "1",
              "lastUpdated": "2022-01-13T21:07:50.000Z",
              "source": "http://myhealthsystemhealth.org/provider",
              "security": [
                {
                  "system": "https://www.icanbwell.com/access",
                  "code": "myhealthsystem"
                },
                {
                  "system": "https://www.icanbwell.com/owner",
                  "code": "myhealthsystem"
                }
              ]
            },
            "identifier": [
              {
                "type": {
                  "coding": [
                    {
                      "system": "http://terminology.hl7.org/CodeSystem/v2-0203",
                      "code": "PractitionerAffiliation"
                    }
                  ]
                },
                "system": "http://myhealthsystemhealth.org",
                "value": "myhealthsystem-Practitioner-Affiliates"
              }
            ],
            "type": "practitioner",
            "actual": true,
            "name": "myhealthsystem Affiliated Practitioner",
            "managingEntity": {
              "reference": "Organization/myhealthsystem"
            },
            "member": []
          }
        ],
        "identifier": [
          {
            "use": "usual",
            "type": {
              "coding": [
                {
                  "system": "http://terminology.hl7.org/CodeSystem/v2-0203",
                  "code": "PRN"
                }
              ]
            },
            "system": "http://myhealthsystemhealth.org",
            "value": "112440"
          },
          {
            "use": "official",
            "type": {
              "coding": [
                {
                  "system": "http://terminology.hl7.org/CodeSystem/v2-0203",
                  "code": "NPI"
                }
              ]
            },
            "system": "http://hl7.org/fhir/sid/us-npi",
            "value": "1003059437"
          },
          {
            "use": "official",
            "type": {
              "coding": [
                {
                  "system": "http://terminology.hl7.org/CodeSystem/v2-0203",
                  "code": "TAX"
                }
              ]
            },
            "system": "http://hl7.org/fhir/sid/us-tin",
            "value": "11-1111111"
          },
          {
            "id": "myhealthsystem-gecb_provider_number",
            "extension": [
              {
                "id": "myhealthsystem-client",
                "url": "https://www.icanbwell.com/client",
                "valueCode": "myhealthsystem"
              }
            ],
            "use": "usual",
            "type": {
              "coding": [
                {
                  "id": "id-type",
                  "system": "http://terminology.hl7.org/CodeSystem/v2-0203",
                  "code": "PRN"
                }
              ]
            },
            "system": "http://myhealthsystemhealth.org",
            "value": "112440"
          },
          {
            "id": "npi",
            "extension": [
              {
                "id": "myhealthsystem-client",
                "url": "https://www.icanbwell.com/client",
                "valueCode": "myhealthsystem"
              }
            ],
            "use": "official",
            "type": {
              "coding": [
                {
                  "id": "npi-type",
                  "system": "http://terminology.hl7.org/CodeSystem/v2-0203",
                  "code": "NPI"
                },
                {
                  "system": "http://terminology.hl7.org/CodeSystem/v2-0203",
                  "code": "NPI"
                }
              ]
            },
            "system": "http://hl7.org/fhir/sid/us-npi",
            "value": "1003059437"
          },
          {
            "id": "tin",
            "extension": [
              {
                "id": "myhealthsystem-client",
                "url": "https://www.icanbwell.com/client",
                "valueCode": "myhealthsystem"
              }
            ],
            "use": "official",
            "type": {
              "coding": [
                {
                  "system": "http://terminology.hl7.org/CodeSystem/v2-0203",
                  "code": "TAX"
                }
              ]
            },
            "system": "http://hl7.org/fhir/sid/us-tin",
            "value": "11-1111111"
          }
        ],
        "active": true,
        "name": [
          {
            "use": "usual",
            "text": "FNAME LNAME MD",
            "family": "LNAME",
            "given": [
              "FNAME"
            ]
          },
          {
            "id": "myhealthsystem-name",
            "extension": [
              {
                "id": "myhealthsystem-client",
                "url": "https://www.icanbwell.com/client",
                "valueCode": "myhealthsystem"
              }
            ],
            "use": "usual",
            "text": "FNAME LNAME MD",
            "family": "LNAME",
            "given": [
              "FNAME"
            ]
          }
        ],
        "telecom": [
          {
            "system": "email",
            "value": "email@email.com",
            "use": "work"
          },
          {
            "id": "myhealthsystem-email",
            "extension": [
              {
                "id": "myhealthsystem-client",
                "url": "https://www.icanbwell.com/client",
                "valueCode": "myhealthsystem"
              }
            ],
            "system": "email",
            "value": "email@email.com",
            "use": "work"
          }
        ],
        "gender": "female",
        "photo": [
          {
            "contentType": "image/jpg",
            "url": "https://ct1.myhealthsystemhealth.org/content/uploads/2016/08/LNAME-Fname_WELLER-150x150.jpg",
            "title": "Practitioner headshot: Fname Lname - 1003059437"
          },
          {
            "id": "myhealthsystem-headshot",
            "extension": [
              {
                "id": "myhealthsystem-client",
                "url": "https://www.icanbwell.com/client",
                "valueCode": "myhealthsystem"
              }
            ],
            "contentType": "image/jpg",
            "url": "https://ct1.myhealthsystemhealth.org/content/uploads/2016/08/LNAME-Fname_WELLER-150x150.jpg",
            "title": "Practitioner headshot: Fname Lname - 1003059437"
          }
        ],
        "qualification": [
          {
            "id": "amp-0",
            "extension": [
              {
                "id": "myhealthsystem-client",
                "url": "https://www.icanbwell.com/client",
                "valueCode": "myhealthsystem"
              }
            ],
            "code": {
              "coding": [
                {
                  "system": "http://terminology.hl7.org/ValueSet/v2-2.7-0360",
                  "code": "MD"
                },
                {
                  "id": "qual-code",
                  "system": "http://terminology.hl7.org/ValueSet/v2-2.7-0360",
                  "code": "MD"
                }
              ]
            },
            "period": {
              "id": "qual-period",
              "start": "2009-01-01T00:00:00.000Z",
              "end": "2022-04-01T00:00:00.000Z"
            },
            "issuer": {
              "reference": "Organization/New-York-University-School-of-Medicine",
              "display": "New York University School of Medicine"
            }
          }
        ],
        "communication": [
          {
            "coding": [
              {
                "system": "urn:ietf:bcp:47",
                "code": "en",
                "display": "English"
              }
            ]
          },
          {
            "id": "myhealthsystemEnglish",
            "extension": [
              {
                "id": "myhealthsystem-client",
                "url": "https://www.icanbwell.com/client",
                "valueCode": "myhealthsystem"
              }
            ],
            "coding": [
              {
                "id": "comm-code",
                "system": "urn:ietf:bcp:47",
                "code": "en",
                "display": "English"
              }
            ]
          }
        ]
      }
    }
  ]
}
