{
  "entry": [
    {
      "id": "24a5930e-11b4-5525-b482-669174917044",
      "resource": {
        "birthDate": "2017-01-01",
        "gender": "female",
        "id": "24a5930e-11b4-5525-b482-669174917044",
        "identifier": [
          { "id": "sourceId", "system": "https://www.icanbwell.com/sourceId", "value": "patient1" },
          {
            "id": "uuid",
            "system": "https://www.icanbwell.com/uuid",
            "value": "24a5930e-11b4-5525-b482-669174917044"
          }
        ],
        "meta": {
          "versionId": "1",
          "lastUpdated": "2025-07-01T10:22:11.153Z",
          "source": "http://healthsystem1health.org/provider",
          "security": [
            {
              "id": "21ef6cd5-667d-53e9-a787-f6fc10847183",
              "system": "https://www.icanbwell.com/access",
              "code": "healthsystem1"
            },
            {
              "id": "6e1a1bd3-9764-55e3-93a3-4cc9f74b3f43",
              "system": "https://www.icanbwell.com/owner",
              "code": "healthsystem1"
            },
            {
              "id": "e4a94e06-a98b-5f89-8724-d2a8cc5bfeef",
              "system": "https://www.icanbwell.com/sourceAssigningAuthority",
              "code": "healthsystem1"
            }
          ]
        },
        "name": [{ "use": "usual", "text": "t", "family": "PATIENT1", "given": ["SHYLA"] }],
        "resourceType": "Patient"
      }
    },
    {
      "id": "ce2b3f55-8a3b-5f06-a449-708dd992119e",
      "resource": {
        "coverage": [
          {
            "coverage": {
              "extension": [
                {
                  "id": "sourceId",
                  "url": "https://www.icanbwell.com/sourceId",
                  "valueString": "Coverage/7546D"
                },
                {
                  "id": "uuid",
                  "url": "https://www.icanbwell.com/uuid",
                  "valueString": "Coverage/baab0c4a-2c6a-5acb-8d82-c039dd9b3efb"
                },
                {
                  "id": "sourceAssigningAuthority",
                  "url": "https://www.icanbwell.com/sourceAssigningAuthority",
                  "valueString": "healthsystem1"
                }
              ],
              "reference": "Coverage/baab0c4a-2c6a-5acb-8d82-c039dd9b3efb"
            },
            "priority": 1
          }
        ],
        "description": "Hospital charges",
        "id": "ce2b3f55-8a3b-5f06-a449-708dd992119e",
        "identifier": [
          { "system": "urn:oid:0.1.2.3.4.5.6.7", "value": "654321" },
          { "id": "sourceId", "system": "https://www.icanbwell.com/sourceId", "value": "example" },
          {
            "id": "uuid",
            "system": "https://www.icanbwell.com/uuid",
            "value": "ce2b3f55-8a3b-5f06-a449-708dd992119e"
          }
        ],
        "meta": {
          "versionId": "1",
          "lastUpdated": "2025-07-01T10:22:11.222Z",
          "source": "http://healthsystem1health.org/provider",
          "security": [
            {
              "id": "21ef6cd5-667d-53e9-a787-f6fc10847183",
              "system": "https://www.icanbwell.com/access",
              "code": "healthsystem1"
            },
            {
              "id": "6e1a1bd3-9764-55e3-93a3-4cc9f74b3f43",
              "system": "https://www.icanbwell.com/owner",
              "code": "healthsystem1"
            },
            {
              "id": "e4a94e06-a98b-5f89-8724-d2a8cc5bfeef",
              "system": "https://www.icanbwell.com/sourceAssigningAuthority",
              "code": "healthsystem1"
            }
          ]
        },
        "name": "HACC Funded Billing for Peter James Chalmers",
        "owner": {
          "extension": [
            {
              "id": "sourceId",
              "url": "https://www.icanbwell.com/sourceId",
              "valueString": "Organization/hl7"
            },
            {
              "id": "uuid",
              "url": "https://www.icanbwell.com/uuid",
              "valueString": "Organization/214ca533-fb96-562d-824d-3aca1406f3fb"
            },
            {
              "id": "sourceAssigningAuthority",
              "url": "https://www.icanbwell.com/sourceAssigningAuthority",
              "valueString": "healthsystem1"
            }
          ],
          "reference": "Organization/214ca533-fb96-562d-824d-3aca1406f3fb"
        },
        "resourceType": "Account",
        "servicePeriod": { "start": "2016-01-01", "end": "2016-06-30" },
        "status": "active",
        "subject": [
          {
            "extension": [
              {
                "id": "sourceId",
                "url": "https://www.icanbwell.com/sourceId",
                "valueString": "Patient/patient1"
              },
              {
                "id": "uuid",
                "url": "https://www.icanbwell.com/uuid",
                "valueString": "Patient/24a5930e-11b4-5525-b482-669174917044"
              },
              {
                "id": "sourceAssigningAuthority",
                "url": "https://www.icanbwell.com/sourceAssigningAuthority",
                "valueString": "healthsystem1"
              }
            ],
            "reference": "Patient/24a5930e-11b4-5525-b482-669174917044",
            "display": "Peter James Chalmers"
          }
        ],
        "text": {
          "status": "generated",
          "div": "<div xmlns=\"http://www.w3.org/1999/xhtml\">HACC Funded Billing for Peter James Chalmers</div>"
        },
        "type": {
          "coding": [
            {
              "id": "335d2e6f-c389-590f-ade8-d44615adebd2",
              "system": "http://terminology.hl7.org/CodeSystem/v3-ActCode",
              "code": "PBILLACCT",
              "display": "patient billing account"
            }
          ],
          "text": "patient"
        }
      }
    },
    {
      "id": "395f9ff4-9012-5482-8ea8-d59a4ca9fc20",
      "resource": {
        "collection": {
          "source": {
            "extension": [
              {
                "id": "sourceId",
                "url": "https://www.icanbwell.com/sourceId",
                "valueString": "Patient/patient1"
              },
              {
                "id": "uuid",
                "url": "https://www.icanbwell.com/uuid",
                "valueString": "Patient/24a5930e-11b4-5525-b482-669174917044"
              },
              {
                "id": "sourceAssigningAuthority",
                "url": "https://www.icanbwell.com/sourceAssigningAuthority",
                "valueString": "healthsystem1"
              }
            ],
            "reference": "Patient/24a5930e-11b4-5525-b482-669174917044"
          }
        },
        "id": "395f9ff4-9012-5482-8ea8-d59a4ca9fc20",
        "identifier": [
          { "id": "sourceId", "system": "https://www.icanbwell.com/sourceId", "value": "bio1" },
          {
            "id": "uuid",
            "system": "https://www.icanbwell.com/uuid",
            "value": "395f9ff4-9012-5482-8ea8-d59a4ca9fc20"
          }
        ],
        "meta": {
          "versionId": "1",
          "lastUpdated": "2025-07-01T10:22:11.949Z",
          "source": "https://www.icanbwell.com",
          "security": [
            {
              "id": "6e1a1bd3-9764-55e3-93a3-4cc9f74b3f43",
              "system": "https://www.icanbwell.com/owner",
              "code": "healthsystem1"
            },
            {
              "id": "21ef6cd5-667d-53e9-a787-f6fc10847183",
              "system": "https://www.icanbwell.com/access",
              "code": "healthsystem1"
            },
            {
              "id": "e4a94e06-a98b-5f89-8724-d2a8cc5bfeef",
              "system": "https://www.icanbwell.com/sourceAssigningAuthority",
              "code": "healthsystem1"
            }
          ]
        },
        "resourceType": "BiologicallyDerivedProduct",
        "text": {
          "status": "generated",
          "div": "<div xmlns= code g/dL = 'g/dL')</span></td></tr></table></div>"
        }
      }
    },
    {
      "id": "42f7c218-bb50-56d5-b0d4-fe92a8e5f23b",
      "resource": {
        "id": "42f7c218-bb50-56d5-b0d4-fe92a8e5f23b",
        "identifier": [
          { "id": "sourceId", "system": "https://www.icanbwell.com/sourceId", "value": "1" },
          {
            "id": "uuid",
            "system": "https://www.icanbwell.com/uuid",
            "value": "42f7c218-bb50-56d5-b0d4-fe92a8e5f23b"
          }
        ],
        "meta": {
          "versionId": "1",
          "lastUpdated": "2025-07-01T10:22:11.513Z",
          "source": "test",
          "security": [
            {
              "id": "6e1a1bd3-9764-55e3-93a3-4cc9f74b3f43",
              "system": "https://www.icanbwell.com/owner",
              "code": "healthsystem1"
            },
            {
              "id": "21ef6cd5-667d-53e9-a787-f6fc10847183",
              "system": "https://www.icanbwell.com/access",
              "code": "healthsystem1"
            },
            {
              "id": "675ab9a9-9fb6-5a48-8406-dce8c95a100b",
              "system": "https://www.icanbwell.com/vendor",
              "code": "B"
            },
            {
              "id": "073d5d2a-f3b8-5458-a152-5746f24b5488",
              "system": "https://www.icanbwell.com/access",
              "code": "B"
            },
            {
              "id": "e4a94e06-a98b-5f89-8724-d2a8cc5bfeef",
              "system": "https://www.icanbwell.com/sourceAssigningAuthority",
              "code": "healthsystem1"
            }
          ]
        },
        "recorder": {
          "extension": [
            {
              "id": "sourceId",
              "url": "https://www.icanbwell.com/sourceId",
              "valueString": "Practitioner/aa8a8ff8-af25-5878-8cf3-bc74227d44dd"
            },
            {
              "id": "uuid",
              "url": "https://www.icanbwell.com/uuid",
              "valueString": "Practitioner/aa8a8ff8-af25-5878-8cf3-bc74227d44dd"
            },
            {
              "id": "sourceAssigningAuthority",
              "url": "https://www.icanbwell.com/sourceAssigningAuthority",
              "valueString": "healthsystem1"
            }
          ],
          "reference": "Practitioner/aa8a8ff8-af25-5878-8cf3-bc74227d44dd"
        },
        "resourceType": "Condition",
        "subject": {
          "extension": [
            {
              "id": "sourceId",
              "url": "https://www.icanbwell.com/sourceId",
              "valueString": "Patient/patient1"
            },
            {
              "id": "uuid",
              "url": "https://www.icanbwell.com/uuid",
              "valueString": "Patient/24a5930e-11b4-5525-b482-669174917044"
            },
            {
              "id": "sourceAssigningAuthority",
              "url": "https://www.icanbwell.com/sourceAssigningAuthority",
              "valueString": "healthsystem1"
            }
          ],
          "reference": "Patient/24a5930e-11b4-5525-b482-669174917044"
        }
      }
    },
    {
      "id": "8be15395-7bcd-55b7-88b8-853b28791945",
      "resource": {
        "id": "8be15395-7bcd-55b7-88b8-853b28791945",
        "item": [
          {
            "type": "source",
            "resource": {
              "extension": [
                {
                  "id": "sourceId",
                  "url": "https://www.icanbwell.com/sourceId",
                  "valueString": "Patient/patient1"
                },
                {
                  "id": "uuid",
                  "url": "https://www.icanbwell.com/uuid",
                  "valueString": "Patient/24a5930e-11b4-5525-b482-669174917044"
                },
                {
                  "id": "sourceAssigningAuthority",
                  "url": "https://www.icanbwell.com/sourceAssigningAuthority",
                  "valueString": "healthsystem1"
                }
              ],
              "reference": "Patient/24a5930e-11b4-5525-b482-669174917044"
            }
          }
        ],
        "meta": {
          "versionId": "1",
          "lastUpdated": "2025-07-01T10:22:11.762Z",
          "source": "https://www.icanbwell.com",
          "security": [
            {
              "id": "6e1a1bd3-9764-55e3-93a3-4cc9f74b3f43",
              "system": "https://www.icanbwell.com/owner",
              "code": "healthsystem1"
            },
            {
              "id": "21ef6cd5-667d-53e9-a787-f6fc10847183",
              "system": "https://www.icanbwell.com/access",
              "code": "healthsystem1"
            },
            {
              "id": "e4a94e06-a98b-5f89-8724-d2a8cc5bfeef",
              "system": "https://www.icanbwell.com/sourceAssigningAuthority",
              "code": "healthsystem1"
            }
          ]
        },
        "resourceType": "Linkage"
      }
    },
    {
      "id": "61886699-c643-5e3b-a074-569e4c43bddf",
      "resource": {
        "code": {
          "coding": [
            {
              "id": "62186514-8c23-5680-85fd-b6898c99eacb",
              "system": "http://www.icanbwell.com/cql/library",
              "code": "BMI001"
            },
            {
              "id": "77b3739c-725f-5833-a93e-cce825fb7b4a",
              "system": "http://www.icanbwell.com/cql/libraryVersion",
              "code": "1.0.0"
            },
            {
              "id": "977380c4-aca5-57a2-9eab-03eea0c1941d",
              "system": "http://www.icanbwell.com/cql/rule",
              "code": "InAgeCohort"
            }
          ]
        },
        "effectivePeriod": {
          "start": "2021-01-01T00:00:00.000Z",
          "end": "2021-12-31T00:00:00.000Z"
        },
        "id": "61886699-c643-5e3b-a074-569e4c43bddf",
        "identifier": [
          {
            "id": "sourceId",
            "system": "https://www.icanbwell.com/sourceId",
            "value": "2354-InAgeCohort"
          },
          {
            "id": "uuid",
            "system": "https://www.icanbwell.com/uuid",
            "value": "61886699-c643-5e3b-a074-569e4c43bddf"
          }
        ],
        "issued": "2021-01-01T12:00:00.000Z",
        "meta": {
          "versionId": "1",
          "lastUpdated": "2025-07-01T10:22:11.258Z",
          "source": "/patients",
          "security": [
            {
              "id": "6e1a1bd3-9764-55e3-93a3-4cc9f74b3f43",
              "system": "https://www.icanbwell.com/owner",
              "code": "healthsystem1"
            },
            {
              "id": "21ef6cd5-667d-53e9-a787-f6fc10847183",
              "system": "https://www.icanbwell.com/access",
              "code": "healthsystem1"
            },
            {
              "id": "675ab9a9-9fb6-5a48-8406-dce8c95a100b",
              "system": "https://www.icanbwell.com/vendor",
              "code": "B"
            },
            {
              "id": "073d5d2a-f3b8-5458-a152-5746f24b5488",
              "system": "https://www.icanbwell.com/access",
              "code": "B"
            },
            {
              "id": "e4a94e06-a98b-5f89-8724-d2a8cc5bfeef",
              "system": "https://www.icanbwell.com/sourceAssigningAuthority",
              "code": "healthsystem1"
            }
          ]
        },
        "resourceType": "Observation",
        "status": "final",
        "subject": {
          "extension": [
            {
              "id": "sourceId",
              "url": "https://www.icanbwell.com/sourceId",
              "valueString": "Patient/patient1"
            },
            {
              "id": "uuid",
              "url": "https://www.icanbwell.com/uuid",
              "valueString": "Patient/24a5930e-11b4-5525-b482-669174917044"
            },
            {
              "id": "sourceAssigningAuthority",
              "url": "https://www.icanbwell.com/sourceAssigningAuthority",
              "valueString": "healthsystem1"
            }
          ],
          "reference": "Patient/24a5930e-11b4-5525-b482-669174917044"
        },
        "valueBoolean": false
      }
    },
    {
      "id": "c0f015df-96a2-565f-aa33-e8603472d2f0",
      "resource": {
        "amount": { "value": 12500, "currency": "USD" },
        "created": "2014-08-15",
        "id": "c0f015df-96a2-565f-aa33-e8603472d2f0",
        "identifier": [
          {
            "id": "sourceId",
            "system": "https://www.icanbwell.com/sourceId",
            "value": "paymentNotice1"
          },
          {
            "id": "uuid",
            "system": "https://www.icanbwell.com/uuid",
            "value": "c0f015df-96a2-565f-aa33-e8603472d2f0"
          }
        ],
        "meta": {
          "versionId": "1",
          "lastUpdated": "2025-07-01T10:22:11.796Z",
          "source": "https://www.icanbwell.com",
          "security": [
            {
              "id": "6e1a1bd3-9764-55e3-93a3-4cc9f74b3f43",
              "system": "https://www.icanbwell.com/owner",
              "code": "healthsystem1"
            },
            {
              "id": "21ef6cd5-667d-53e9-a787-f6fc10847183",
              "system": "https://www.icanbwell.com/access",
              "code": "healthsystem1"
            },
            {
              "id": "e4a94e06-a98b-5f89-8724-d2a8cc5bfeef",
              "system": "https://www.icanbwell.com/sourceAssigningAuthority",
              "code": "healthsystem1"
            }
          ]
        },
        "payment": {
          "extension": [
            {
              "id": "sourceId",
              "url": "https://www.icanbwell.com/sourceId",
              "valueString": "PaymentReconciliation/ER2500"
            },
            {
              "id": "uuid",
              "url": "https://www.icanbwell.com/uuid",
              "valueString": "PaymentReconciliation/d45e43c6-170f-52e1-a157-692ee5c9704b"
            },
            {
              "id": "sourceAssigningAuthority",
              "url": "https://www.icanbwell.com/sourceAssigningAuthority",
              "valueString": "healthsystem1"
            }
          ],
          "reference": "PaymentReconciliation/d45e43c6-170f-52e1-a157-692ee5c9704b"
        },
        "recipient": { "identifier": { "system": "http://regulators.gov", "value": "AB123" } },
        "request": {
          "extension": [
            {
              "id": "sourceId",
              "url": "https://www.icanbwell.com/sourceId",
              "valueString": "Patient/patient1"
            },
            {
              "id": "uuid",
              "url": "https://www.icanbwell.com/uuid",
              "valueString": "Patient/24a5930e-11b4-5525-b482-669174917044"
            },
            {
              "id": "sourceAssigningAuthority",
              "url": "https://www.icanbwell.com/sourceAssigningAuthority",
              "valueString": "healthsystem1"
            }
          ],
          "reference": "Patient/24a5930e-11b4-5525-b482-669174917044"
        },
        "resourceType": "PaymentNotice",
        "status": "active"
      }
    },
    {
      "id": "5f3ca115-8630-5e55-a97d-4d6ee26c0adc",
      "resource": {
        "birthDate": "1990-01-01",
        "gender": "male",
        "id": "5f3ca115-8630-5e55-a97d-4d6ee26c0adc",
        "identifier": [
          { "id": "sourceId", "system": "https://www.icanbwell.com/sourceId", "value": "person1" },
          {
            "id": "uuid",
            "system": "https://www.icanbwell.com/uuid",
            "value": "5f3ca115-8630-5e55-a97d-4d6ee26c0adc"
          }
        ],
        "link": [
          {
            "target": {
              "extension": [
                {
                  "id": "sourceId",
                  "url": "https://www.icanbwell.com/sourceId",
                  "valueString": "Patient/patient1"
                },
                {
                  "id": "uuid",
                  "url": "https://www.icanbwell.com/uuid",
                  "valueString": "Patient/24a5930e-11b4-5525-b482-669174917044"
                },
                {
                  "id": "sourceAssigningAuthority",
                  "url": "https://www.icanbwell.com/sourceAssigningAuthority",
                  "valueString": "healthsystem1"
                }
              ],
              "reference": "Patient/24a5930e-11b4-5525-b482-669174917044",
              "type": "Patient"
            },
            "assurance": "level4"
          }
        ],
        "meta": {
          "versionId": "1",
          "lastUpdated": "2025-07-01T10:22:11.113Z",
          "source": "healthsystem1",
          "security": [
            {
              "id": "21ef6cd5-667d-53e9-a787-f6fc10847183",
              "system": "https://www.icanbwell.com/access",
              "code": "healthsystem1"
            },
            {
              "id": "6e1a1bd3-9764-55e3-93a3-4cc9f74b3f43",
              "system": "https://www.icanbwell.com/owner",
              "code": "healthsystem1"
            },
            {
              "id": "e4a94e06-a98b-5f89-8724-d2a8cc5bfeef",
              "system": "https://www.icanbwell.com/sourceAssigningAuthority",
              "code": "healthsystem1"
            }
          ]
        },
        "name": [{ "use": "usual", "text": "t", "family": "person1", "given": ["OTHER"] }],
        "resourceType": "Person"
      }
    },
    {
      "id": "aa8a8ff8-af25-5878-8cf3-bc74227d44dd",
      "resource": {
        "active": true,
        "communication": [
          {
            "coding": [
              {
                "id": "dbafba35-4de0-5924-a3fb-491aa1b99e6d",
                "system": "urn:ietf:bcp:47",
                "code": "en"
              }
            ]
          }
        ],
        "gender": "unknown",
        "id": "aa8a8ff8-af25-5878-8cf3-bc74227d44dd",
        "identifier": [
          {
            "use": "usual",
            "type": {
              "coding": [
                {
                  "id": "c43d55b1-820c-598b-94b2-dbec4db44b9e",
                  "system": "http://terminology.hl7.org/CodeSystem/v2-0203",
                  "code": "PRN"
                }
              ]
            },
            "system": "http://clienthealth.org",
            "value": "4657"
          },
          {
            "use": "official",
            "type": {
              "coding": [
                {
                  "id": "e6e3086f-d120-5e5e-8744-6af40a836e8c",
                  "system": "http://terminology.hl7.org/CodeSystem/v2-0203",
                  "code": "NPI"
                }
              ]
            },
            "system": "http://hl7.org/fhir/sid/us-npi",
            "value": "1679033641"
          },
          {
            "id": "sourceId",
            "system": "https://www.icanbwell.com/sourceId",
            "value": "1679033641"
          },
          {
            "id": "uuid",
            "system": "https://www.icanbwell.com/uuid",
            "value": "aa8a8ff8-af25-5878-8cf3-bc74227d44dd"
          }
        ],
        "meta": {
          "versionId": "1",
          "lastUpdated": "2025-07-01T10:22:11.473Z",
          "source": "client",
          "security": [
            {
              "id": "21b6850a-a1fb-5de3-8f69-7962d5394390",
              "system": "https://www.icanbwell.com/access",
              "code": "client"
            },
            {
              "id": "1642e685-6de9-5bdb-89e8-b62ffe4420eb",
              "system": "https://www.icanbwell.com/owner",
              "code": "client"
            },
            {
              "id": "cea955c4-9b2c-5b0d-8b48-acfd40cabb59",
              "system": "https://www.icanbwell.com/sourceAssigningAuthority",
              "code": "client"
            }
          ]
        },
        "name": [
          {
            "use": "usual",
            "text": "SAMER S. NAJJAR  MD",
            "family": "NAJJAR  MD",
            "given": ["SAMER S."]
          },
          {
            "use": "usual",
            "text": "NAJJAR  MD, SAMER S.",
            "family": "NAJJAR  MD",
            "given": ["SAMER S."]
          }
        ],
        "qualification": [
          {
            "code": {
              "coding": [
                {
                  "id": "c80483dd-19aa-5e37-a22c-9ca194885571",
                  "system": "http://terminology.hl7.org/ValueSet/v2-2.7-030",
                  "code": "MD"
                }
              ]
            }
          },
          {
            "code": {
              "coding": [
                {
                  "id": "c80483dd-19aa-5e37-a22c-9ca194885571",
                  "system": "http://terminology.hl7.org/ValueSet/v2-2.7-030",
                  "code": "MD"
                }
              ]
            },
            "period": { "start": "1960-01-01", "end": "2021-12-11" },
            "issuer": {
              "extension": [
                {
                  "id": "sourceId",
                  "url": "https://www.icanbwell.com/sourceId",
                  "valueString": "Organization/d187d5ce-f842-5e13-a4db-961d8e728ebc"
                },
                {
                  "id": "uuid",
                  "url": "https://www.icanbwell.com/uuid",
                  "valueString": "Organization/d187d5ce-f842-5e13-a4db-961d8e728ebc"
                },
                {
                  "id": "sourceAssigningAuthority",
                  "url": "https://www.icanbwell.com/sourceAssigningAuthority",
                  "valueString": "client"
                }
              ],
              "reference": "Organization/d187d5ce-f842-5e13-a4db-961d8e728ebc"
            }
          }
        ],
        "resourceType": "Practitioner",
        "telecom": [{ "system": "email", "value": "foo@foo.com", "use": "work" }]
      }
    },
    {
      "id": "d187d5ce-f842-5e13-a4db-961d8e728ebc",
      "resource": {
        "active": true,
        "address": [
          {
            "line": ["5009 Honeygo Center Drive", "Suite 216"],
            "city": "Perry Hall",
            "state": "MD",
            "postalCode": "21128"
          }
        ],
        "alias": ["Client Medical Group Derm at Honeygo"],
        "contact": [
          {
            "purpose": {
              "coding": [
                {
                  "id": "83763aef-2839-5dcb-bb58-f09a287be950",
                  "system": "ClientHealth.org",
                  "code": "Central Scheduling"
                }
              ]
            },
            "telecom": [{ "system": "phone", "use": "work" }]
          }
        ],
        "extension": [{ "valueDecimal": -76.61668 }, { "valueDecimal": 39.32792 }],
        "id": "d187d5ce-f842-5e13-a4db-961d8e728ebc",
        "identifier": [
          { "use": "usual", "system": "bwell", "value": "-733797173" },
          {
            "id": "sourceId",
            "system": "https://www.icanbwell.com/sourceId",
            "value": "733797173"
          },
          {
            "id": "uuid",
            "system": "https://www.icanbwell.com/uuid",
            "value": "d187d5ce-f842-5e13-a4db-961d8e728ebc"
          }
        ],
        "meta": {
          "versionId": "1",
          "lastUpdated": "2025-07-01T10:22:11.449Z",
          "source": "https://www.foo.com",
          "security": [
            {
              "id": "21b6850a-a1fb-5de3-8f69-7962d5394390",
              "system": "https://www.icanbwell.com/access",
              "code": "client"
            },
            {
              "id": "70ae40c6-f2bd-54a0-aa66-656be4cce72b",
              "system": "https://www.icanbwell.com/owner",
              "code": "bwell"
            },
            {
              "id": "33ced3c5-0807-582a-b03a-df7d6e95a41c",
              "system": "https://www.icanbwell.com/sourceAssigningAuthority",
              "code": "bwell"
            }
          ]
        },
        "name": "Client Medical Group Dermatology at Honeygo",
        "partOf": {
          "extension": [
            {
              "id": "sourceId",
              "url": "https://www.icanbwell.com/sourceId",
              "valueString": "Organization/7712bd08-fd99-561d-9324-d2fcd41fb009"
            },
            {
              "id": "uuid",
              "url": "https://www.icanbwell.com/uuid",
              "valueString": "Organization/7712bd08-fd99-561d-9324-d2fcd41fb009"
            },
            {
              "id": "sourceAssigningAuthority",
              "url": "https://www.icanbwell.com/sourceAssigningAuthority",
              "valueString": "bwell"
            }
          ],
          "reference": "Organization/7712bd08-fd99-561d-9324-d2fcd41fb009",
          "type": "Organization",
          "display": "Client Medical Group"
        },
        "resourceType": "Organization",
        "telecom": [
          { "system": "phone", "value": "(410) 256-5858" },
          { "system": "fax", "value": "(866) 733-0434" }
        ],
        "type": [
          {
            "coding": [
              {
                "id": "b01785b7-5551-54fe-9805-ea3c1253d22f",
                "system": "http://terminology.hl7.org/CodeSystem/organization-type",
                "code": "prov",
                "display": "Healthcare Provider"
              }
            ],
            "text": "Healthcare Organization"
          },
          {
            "coding": [
              {
                "id": "b01785b7-5551-54fe-9805-ea3c1253d22f",
                "system": "http://terminology.hl7.org/CodeSystem/organization-type",
                "code": "prov",
                "display": "Emergency Room"
              }
            ],
            "text": "ER Indicator"
          }
        ]
      }
    },
    {
      "id": "7712bd08-fd99-561d-9324-d2fcd41fb009",
      "resource": {
        "active": true,
        "address": [
          {
            "line": ["5009 Honeygo Center Drive", "Suite 216"],
            "city": "Perry Hall",
            "state": "MD",
            "postalCode": "21128"
          }
        ],
        "alias": ["Client Medical Group Derm at Honeygo"],
        "contact": [
          {
            "purpose": {
              "coding": [
                {
                  "id": "83763aef-2839-5dcb-bb58-f09a287be950",
                  "system": "ClientHealth.org",
                  "code": "Central Scheduling"
                }
              ]
            },
            "telecom": [{ "system": "phone", "use": "work" }]
          }
        ],
        "extension": [{ "valueDecimal": -76.61668 }, { "valueDecimal": 39.32792 }],
        "id": "7712bd08-fd99-561d-9324-d2fcd41fb009",
        "identifier": [
          { "use": "usual", "system": "bwell", "value": "-7337971735" },
          {
            "id": "sourceId",
            "system": "https://www.icanbwell.com/sourceId",
            "value": "7337971735"
          },
          {
            "id": "uuid",
            "system": "https://www.icanbwell.com/uuid",
            "value": "7712bd08-fd99-561d-9324-d2fcd41fb009"
          }
        ],
        "meta": {
          "versionId": "1",
          "lastUpdated": "2025-07-01T10:22:11.409Z",
          "source": "https://www.foo.com",
          "security": [
            {
              "id": "21b6850a-a1fb-5de3-8f69-7962d5394390",
              "system": "https://www.icanbwell.com/access",
              "code": "client"
            },
            {
              "id": "70ae40c6-f2bd-54a0-aa66-656be4cce72b",
              "system": "https://www.icanbwell.com/owner",
              "code": "bwell"
            },
            {
              "id": "33ced3c5-0807-582a-b03a-df7d6e95a41c",
              "system": "https://www.icanbwell.com/sourceAssigningAuthority",
              "code": "bwell"
            }
          ]
        },
        "name": "Client Medical Group Dermatology at Honeygo",
        "resourceType": "Organization",
        "telecom": [
          { "system": "phone", "value": "(410) 256-5858" },
          { "system": "fax", "value": "(866) 733-0434" }
        ],
        "type": [
          {
            "coding": [
              {
                "id": "b01785b7-5551-54fe-9805-ea3c1253d22f",
                "system": "http://terminology.hl7.org/CodeSystem/organization-type",
                "code": "prov",
                "display": "Healthcare Provider"
              }
            ],
            "text": "Healthcare Organization"
          },
          {
            "coding": [
              {
                "id": "b01785b7-5551-54fe-9805-ea3c1253d22f",
                "system": "http://terminology.hl7.org/CodeSystem/organization-type",
                "code": "prov",
                "display": "Emergency Room"
              }
            ],
            "text": "ER Indicator"
          }
        ]
      }
    }
  ],
  "type": "searchset",
  "timestamp": "2025-07-01T10:22:12.1212Z",
  "link": [
    {
      "relation": "self",
      "url": "http://127.0.0.1:60792/4_0_0/Patient/patient1/$everything?_debug=true&_since=2025-01-02"
    }
  ],
  "resourceType": "Bundle",
  "total": 11,
  "id": "6d329820-d9d4-4054-adc6-45db977b3747",
  "meta": {
    "tag": [
      {
        "system": "https://www.icanbwell.com/query",
        "display": "db.Patient_4_0_0.find({'$and':[{'_sourceId':'patient1'},{'_uuid':{'$in':['person.5f3ca115-8630-5e55-a97d-4d6ee26c0adc','24a5930e-11b4-5525-b482-669174917044']}},{'meta.security':{'$not':{'$elemMatch':{'system':'http://terminology.hl7.org/CodeSystem/v3-Confidentiality','code':'R'}}}}]}, {'_id':0})  | db.Consent_4_0_0.find({'$and':[{'patient._uuid':'Patient/person.5f3ca115-8630-5e55-a97d-4d6ee26c0adc'},{'category.coding':{'$elemMatch':{'system':'http://www.icanbwell.com/consent-category','code':'dataConnectionViewControl'}}},{'provision.actor.reference._uuid':'Patient/24a5930e-11b4-5525-b482-669174917044'},{'meta.tag':{'$not':{'$elemMatch':{'system':'https://fhir.icanbwell.com/4_0_0/CodeSystem/server-behavior','code':'hidden'}}}},{'meta.security':{'$not':{'$elemMatch':{'system':'http://terminology.hl7.org/CodeSystem/v3-Confidentiality','code':'R'}}}}]}, {'_id':0}) | db.Account_4_0_0.find({'$and':[{'meta.lastUpdated':{'$gt':ISODate('2025-01-02T00:00:00.000Z')}},{'subject._uuid':'Patient/24a5930e-11b4-5525-b482-669174917044'},{'meta.tag':{'$not':{'$elemMatch':{'system':'https://fhir.icanbwell.com/4_0_0/CodeSystem/server-behavior','code':'hidden'}}}},{'meta.security':{'$not':{'$elemMatch':{'system':'http://terminology.hl7.org/CodeSystem/v3-Confidentiality','code':'R'}}}}]}, {'_id':0}) | db.AdverseEvent_4_0_0.find({'$and':[{'meta.lastUpdated':{'$gt':ISODate('2025-01-02T00:00:00.000Z')}},{'subject._uuid':'Patient/24a5930e-11b4-5525-b482-669174917044'},{'meta.tag':{'$not':{'$elemMatch':{'system':'https://fhir.icanbwell.com/4_0_0/CodeSystem/server-behavior','code':'hidden'}}}},{'meta.security':{'$not':{'$elemMatch':{'system':'http://terminology.hl7.org/CodeSystem/v3-Confidentiality','code':'R'}}}}]}, {'_id':0}) | db.AllergyIntolerance_4_0_0.find({'$and':[{'meta.lastUpdated':{'$gt':ISODate('2025-01-02T00:00:00.000Z')}},{'patient._uuid':'Patient/24a5930e-11b4-5525-b482-669174917044'},{'meta.tag':{'$not':{'$elemMatch':{'system':'https://fhir.icanbwell.com/4_0_0/CodeSystem/server-behavior','code':'hidden'}}}},{'meta.security':{'$not':{'$elemMatch':{'system':'http://terminology.hl7.org/CodeSystem/v3-Confidentiality','code':'R'}}}}]}, {'_id':0}) | db.Appointment_4_0_0.find({'$and':[{'meta.lastUpdated':{'$gt':ISODate('2025-01-02T00:00:00.000Z')}},{'participant.actor._uuid':'Patient/24a5930e-11b4-5525-b482-669174917044'},{'meta.tag':{'$not':{'$elemMatch':{'system':'https://fhir.icanbwell.com/4_0_0/CodeSystem/server-behavior','code':'hidden'}}}},{'meta.security':{'$not':{'$elemMatch':{'system':'http://terminology.hl7.org/CodeSystem/v3-Confidentiality','code':'R'}}}}]}, {'_id':0}) | db.AppointmentResponse_4_0_0.find({'$and':[{'meta.lastUpdated':{'$gt':ISODate('2025-01-02T00:00:00.000Z')}},{'actor._uuid':'Patient/24a5930e-11b4-5525-b482-669174917044'},{'meta.tag':{'$not':{'$elemMatch':{'system':'https://fhir.icanbwell.com/4_0_0/CodeSystem/server-behavior','code':'hidden'}}}},{'meta.security':{'$not':{'$elemMatch':{'system':'http://terminology.hl7.org/CodeSystem/v3-Confidentiality','code':'R'}}}}]}, {'_id':0}) | db.BiologicallyDerivedProduct_4_0_0.find({'$and':[{'meta.lastUpdated':{'$gt':ISODate('2025-01-02T00:00:00.000Z')}},{'meta.tag':{'$not':{'$elemMatch':{'system':'https://fhir.icanbwell.com/4_0_0/CodeSystem/server-behavior','code':'hidden'}}}},{'meta.security':{'$not':{'$elemMatch':{'system':'http://terminology.hl7.org/CodeSystem/v3-Confidentiality','code':'R'}}}},{'collection.source._uuid':'Patient/24a5930e-11b4-5525-b482-669174917044'}]}, {'_id':0}) | db.Basic_4_0_0.find({'$and':[{'meta.lastUpdated':{'$gt':ISODate('2025-01-02T00:00:00.000Z')}},{'subject._uuid':'Patient/24a5930e-11b4-5525-b482-669174917044'},{'meta.tag':{'$not':{'$elemMatch':{'system':'https://fhir.icanbwell.com/4_0_0/CodeSystem/server-behavior','code':'hidden'}}}},{'meta.security':{'$not':{'$elemMatch':{'system':'http://terminology.hl7.org/CodeSystem/v3-Confidentiality','code':'R'}}}}]}, {'_id':0}) | db.BodyStructure_4_0_0.find({'$and':[{'meta.lastUpdated':{'$gt':ISODate('2025-01-02T00:00:00.000Z')}},{'patient._uuid':'Patient/24a5930e-11b4-5525-b482-669174917044'},{'meta.tag':{'$not':{'$elemMatch':{'system':'https://fhir.icanbwell.com/4_0_0/CodeSystem/server-behavior','code':'hidden'}}}},{'meta.security':{'$not':{'$elemMatch':{'system':'http://terminology.hl7.org/CodeSystem/v3-Confidentiality','code':'R'}}}}]}, {'_id':0}) | db.CarePlan_4_0_0.find({'$and':[{'meta.lastUpdated':{'$gt':ISODate('2025-01-02T00:00:00.000Z')}},{'$nor':[{'_uuid':'f49c5e15-81b5-57a9-bade-77e9e744fb2e'}]},{'subject._uuid':'Patient/24a5930e-11b4-5525-b482-669174917044'},{'meta.tag':{'$not':{'$elemMatch':{'system':'https://fhir.icanbwell.com/4_0_0/CodeSystem/server-behavior','code':'hidden'}}}},{'meta.security':{'$not':{'$elemMatch':{'system':'http://terminology.hl7.org/CodeSystem/v3-Confidentiality','code':'R'}}}}]}, {'_id':0}) | db.CareTeam_4_0_0.find({'$and':[{'meta.lastUpdated':{'$gt':ISODate('2025-01-02T00:00:00.000Z')}},{'subject._uuid':'Patient/24a5930e-11b4-5525-b482-669174917044'},{'meta.tag':{'$not':{'$elemMatch':{'system':'https://fhir.icanbwell.com/4_0_0/CodeSystem/server-behavior','code':'hidden'}}}},{'meta.security':{'$not':{'$elemMatch':{'system':'http://terminology.hl7.org/CodeSystem/v3-Confidentiality','code':'R'}}}}]}, {'_id':0}) | db.ChargeItem_4_0_0.find({'$and':[{'meta.lastUpdated':{'$gt':ISODate('2025-01-02T00:00:00.000Z')}},{'subject._uuid':'Patient/24a5930e-11b4-5525-b482-669174917044'},{'meta.tag':{'$not':{'$elemMatch':{'system':'https://fhir.icanbwell.com/4_0_0/CodeSystem/server-behavior','code':'hidden'}}}},{'meta.security':{'$not':{'$elemMatch':{'system':'http://terminology.hl7.org/CodeSystem/v3-Confidentiality','code':'R'}}}}]}, {'_id':0}) | db.Claim_4_0_0.find({'$and':[{'meta.lastUpdated':{'$gt':ISODate('2025-01-02T00:00:00.000Z')}},{'patient._uuid':'Patient/24a5930e-11b4-5525-b482-669174917044'},{'meta.tag':{'$not':{'$elemMatch':{'system':'https://fhir.icanbwell.com/4_0_0/CodeSystem/server-behavior','code':'hidden'}}}},{'meta.security':{'$not':{'$elemMatch':{'system':'http://terminology.hl7.org/CodeSystem/v3-Confidentiality','code':'R'}}}}]}, {'_id':0}) | db.ClaimResponse_4_0_0.find({'$and':[{'meta.lastUpdated':{'$gt':ISODate('2025-01-02T00:00:00.000Z')}},{'patient._uuid':'Patient/24a5930e-11b4-5525-b482-669174917044'},{'meta.tag':{'$not':{'$elemMatch':{'system':'https://fhir.icanbwell.com/4_0_0/CodeSystem/server-behavior','code':'hidden'}}}},{'meta.security':{'$not':{'$elemMatch':{'system':'http://terminology.hl7.org/CodeSystem/v3-Confidentiality','code':'R'}}}}]}, {'_id':0}) | db.ClinicalImpression_4_0_0.find({'$and':[{'meta.lastUpdated':{'$gt':ISODate('2025-01-02T00:00:00.000Z')}},{'subject._uuid':'Patient/24a5930e-11b4-5525-b482-669174917044'},{'meta.tag':{'$not':{'$elemMatch':{'system':'https://fhir.icanbwell.com/4_0_0/CodeSystem/server-behavior','code':'hidden'}}}},{'meta.security':{'$not':{'$elemMatch':{'system':'http://terminology.hl7.org/CodeSystem/v3-Confidentiality','code':'R'}}}}]}, {'_id':0}) | db.Communication_4_0_0.find({'$and':[{'meta.lastUpdated':{'$gt':ISODate('2025-01-02T00:00:00.000Z')}},{'subject._uuid':'Patient/24a5930e-11b4-5525-b482-669174917044'},{'meta.tag':{'$not':{'$elemMatch':{'system':'https://fhir.icanbwell.com/4_0_0/CodeSystem/server-behavior','code':'hidden'}}}},{'meta.security':{'$not':{'$elemMatch':{'system':'http://terminology.hl7.org/CodeSystem/v3-Confidentiality','code':'R'}}}}]}, {'_id':0}) | db.CommunicationRequest_4_0_0.find({'$and':[{'meta.lastUpdated':{'$gt':ISODate('2025-01-02T00:00:00.000Z')}},{'subject._uuid':'Patient/24a5930e-11b4-5525-b482-669174917044'},{'meta.tag':{'$not':{'$elemMatch':{'system':'https://fhir.icanbwell.com/4_0_0/CodeSystem/server-behavior','code':'hidden'}}}},{'meta.security':{'$not':{'$elemMatch':{'system':'http://terminology.hl7.org/CodeSystem/v3-Confidentiality','code':'R'}}}}]}, {'_id':0}) | db.Composition_4_0_0.find({'$and':[{'meta.lastUpdated':{'$gt':ISODate('2025-01-02T00:00:00.000Z')}},{'subject._uuid':'Patient/24a5930e-11b4-5525-b482-669174917044'},{'meta.tag':{'$not':{'$elemMatch':{'system':'https://fhir.icanbwell.com/4_0_0/CodeSystem/server-behavior','code':'hidden'}}}},{'meta.security':{'$not':{'$elemMatch':{'system':'http://terminology.hl7.org/CodeSystem/v3-Confidentiality','code':'R'}}}}]}, {'_id':0}) | db.Condition_4_0_0.find({'$and':[{'meta.lastUpdated':{'$gt':ISODate('2025-01-02T00:00:00.000Z')}},{'subject._uuid':'Patient/24a5930e-11b4-5525-b482-669174917044'},{'meta.tag':{'$not':{'$elemMatch':{'system':'https://fhir.icanbwell.com/4_0_0/CodeSystem/server-behavior','code':'hidden'}}}},{'meta.security':{'$not':{'$elemMatch':{'system':'http://terminology.hl7.org/CodeSystem/v3-Confidentiality','code':'R'}}}}]}, {'_id':0}) | db.Consent_4_0_0.find({'$and':[{'meta.lastUpdated':{'$gt':ISODate('2025-01-02T00:00:00.000Z')}},{'patient._uuid':'Patient/24a5930e-11b4-5525-b482-669174917044'},{'meta.tag':{'$not':{'$elemMatch':{'system':'https://fhir.icanbwell.com/4_0_0/CodeSystem/server-behavior','code':'hidden'}}}},{'meta.security':{'$not':{'$elemMatch':{'system':'http://terminology.hl7.org/CodeSystem/v3-Confidentiality','code':'R'}}}}]}, {'_id':0}) | db.Contract_4_0_0.find({'$and':[{'meta.lastUpdated':{'$gt':ISODate('2025-01-02T00:00:00.000Z')}},{'subject._uuid':'Patient/24a5930e-11b4-5525-b482-669174917044'},{'meta.tag':{'$not':{'$elemMatch':{'system':'https://fhir.icanbwell.com/4_0_0/CodeSystem/server-behavior','code':'hidden'}}}},{'meta.security':{'$not':{'$elemMatch':{'system':'http://terminology.hl7.org/CodeSystem/v3-Confidentiality','code':'R'}}}}]}, {'_id':0}) | db.Coverage_4_0_0.find({'$and':[{'meta.lastUpdated':{'$gt':ISODate('2025-01-02T00:00:00.000Z')}},{'beneficiary._uuid':'Patient/24a5930e-11b4-5525-b482-669174917044'},{'meta.tag':{'$not':{'$elemMatch':{'system':'https://fhir.icanbwell.com/4_0_0/CodeSystem/server-behavior','code':'hidden'}}}},{'meta.security':{'$not':{'$elemMatch':{'system':'http://terminology.hl7.org/CodeSystem/v3-Confidentiality','code':'R'}}}}]}, {'_id':0}) | db.CoverageEligibilityRequest_4_0_0.find({'$and':[{'meta.lastUpdated':{'$gt':ISODate('2025-01-02T00:00:00.000Z')}},{'patient._uuid':'Patient/24a5930e-11b4-5525-b482-669174917044'},{'meta.tag':{'$not':{'$elemMatch':{'system':'https://fhir.icanbwell.com/4_0_0/CodeSystem/server-behavior','code':'hidden'}}}},{'meta.security':{'$not':{'$elemMatch':{'system':'http://terminology.hl7.org/CodeSystem/v3-Confidentiality','code':'R'}}}}]}, {'_id':0}) | db.CoverageEligibilityResponse_4_0_0.find({'$and':[{'meta.lastUpdated':{'$gt':ISODate('2025-01-02T00:00:00.000Z')}},{'patient._uuid':'Patient/24a5930e-11b4-5525-b482-669174917044'},{'meta.tag':{'$not':{'$elemMatch':{'system':'https://fhir.icanbwell.com/4_0_0/CodeSystem/server-behavior','code':'hidden'}}}},{'meta.security':{'$not':{'$elemMatch':{'system':'http://terminology.hl7.org/CodeSystem/v3-Confidentiality','code':'R'}}}}]}, {'_id':0}) | db.DetectedIssue_4_0_0.find({'$and':[{'meta.lastUpdated':{'$gt':ISODate('2025-01-02T00:00:00.000Z')}},{'patient._uuid':'Patient/24a5930e-11b4-5525-b482-669174917044'},{'meta.tag':{'$not':{'$elemMatch':{'system':'https://fhir.icanbwell.com/4_0_0/CodeSystem/server-behavior','code':'hidden'}}}},{'meta.security':{'$not':{'$elemMatch':{'system':'http://terminology.hl7.org/CodeSystem/v3-Confidentiality','code':'R'}}}}]}, {'_id':0}) | db.Device_4_0_0.find({'$and':[{'meta.lastUpdated':{'$gt':ISODate('2025-01-02T00:00:00.000Z')}},{'patient._uuid':'Patient/24a5930e-11b4-5525-b482-669174917044'},{'meta.tag':{'$not':{'$elemMatch':{'system':'https://fhir.icanbwell.com/4_0_0/CodeSystem/server-behavior','code':'hidden'}}}},{'meta.security':{'$not':{'$elemMatch':{'system':'http://terminology.hl7.org/CodeSystem/v3-Confidentiality','code':'R'}}}}]}, {'_id':0}) | db.DeviceRequest_4_0_0.find({'$and':[{'meta.lastUpdated':{'$gt':ISODate('2025-01-02T00:00:00.000Z')}},{'subject._uuid':'Patient/24a5930e-11b4-5525-b482-669174917044'},{'meta.tag':{'$not':{'$elemMatch':{'system':'https://fhir.icanbwell.com/4_0_0/CodeSystem/server-behavior','code':'hidden'}}}},{'meta.security':{'$not':{'$elemMatch':{'system':'http://terminology.hl7.org/CodeSystem/v3-Confidentiality','code':'R'}}}}]}, {'_id':0}) | db.DeviceUseStatement_4_0_0.find({'$and':[{'meta.lastUpdated':{'$gt':ISODate('2025-01-02T00:00:00.000Z')}},{'subject._uuid':'Patient/24a5930e-11b4-5525-b482-669174917044'},{'meta.tag':{'$not':{'$elemMatch':{'system':'https://fhir.icanbwell.com/4_0_0/CodeSystem/server-behavior','code':'hidden'}}}},{'meta.security':{'$not':{'$elemMatch':{'system':'http://terminology.hl7.org/CodeSystem/v3-Confidentiality','code':'R'}}}}]}, {'_id':0}) | db.DiagnosticReport_4_0_0.find({'$and':[{'meta.lastUpdated':{'$gt':ISODate('2025-01-02T00:00:00.000Z')}},{'subject._uuid':'Patient/24a5930e-11b4-5525-b482-669174917044'},{'meta.tag':{'$not':{'$elemMatch':{'system':'https://fhir.icanbwell.com/4_0_0/CodeSystem/server-behavior','code':'hidden'}}}},{'meta.security':{'$not':{'$elemMatch':{'system':'http://terminology.hl7.org/CodeSystem/v3-Confidentiality','code':'R'}}}}]}, {'_id':0}) | db.DocumentManifest_4_0_0.find({'$and':[{'meta.lastUpdated':{'$gt':ISODate('2025-01-02T00:00:00.000Z')}},{'subject._uuid':'Patient/24a5930e-11b4-5525-b482-669174917044'},{'meta.tag':{'$not':{'$elemMatch':{'system':'https://fhir.icanbwell.com/4_0_0/CodeSystem/server-behavior','code':'hidden'}}}},{'meta.security':{'$not':{'$elemMatch':{'system':'http://terminology.hl7.org/CodeSystem/v3-Confidentiality','code':'R'}}}}]}, {'_id':0}) | db.DocumentReference_4_0_0.find({'$and':[{'meta.lastUpdated':{'$gt':ISODate('2025-01-02T00:00:00.000Z')}},{'$nor':[{'_uuid':'94528605-a9a1-50e6-a0fe-d718d529e660'}]},{'subject._uuid':'Patient/24a5930e-11b4-5525-b482-669174917044'},{'meta.tag':{'$not':{'$elemMatch':{'system':'https://fhir.icanbwell.com/4_0_0/CodeSystem/server-behavior','code':'hidden'}}}},{'meta.security':{'$not':{'$elemMatch':{'system':'http://terminology.hl7.org/CodeSystem/v3-Confidentiality','code':'R'}}}}]}, {'_id':0}) | db.Encounter_4_0_0.find({'$and':[{'meta.lastUpdated':{'$gt':ISODate('2025-01-02T00:00:00.000Z')}},{'subject._uuid':'Patient/24a5930e-11b4-5525-b482-669174917044'},{'meta.tag':{'$not':{'$elemMatch':{'system':'https://fhir.icanbwell.com/4_0_0/CodeSystem/server-behavior','code':'hidden'}}}},{'meta.security':{'$not':{'$elemMatch':{'system':'http://terminology.hl7.org/CodeSystem/v3-Confidentiality','code':'R'}}}}]}, {'_id':0}) | db.EnrollmentRequest_4_0_0.find({'$and':[{'meta.lastUpdated':{'$gt':ISODate('2025-01-02T00:00:00.000Z')}},{'candidate._uuid':'Patient/24a5930e-11b4-5525-b482-669174917044'},{'meta.tag':{'$not':{'$elemMatch':{'system':'https://fhir.icanbwell.com/4_0_0/CodeSystem/server-behavior','code':'hidden'}}}},{'meta.security':{'$not':{'$elemMatch':{'system':'http://terminology.hl7.org/CodeSystem/v3-Confidentiality','code':'R'}}}}]}, {'_id':0}) | db.EpisodeOfCare_4_0_0.find({'$and':[{'meta.lastUpdated':{'$gt':ISODate('2025-01-02T00:00:00.000Z')}},{'patient._uuid':'Patient/24a5930e-11b4-5525-b482-669174917044'},{'meta.tag':{'$not':{'$elemMatch':{'system':'https://fhir.icanbwell.com/4_0_0/CodeSystem/server-behavior','code':'hidden'}}}},{'meta.security':{'$not':{'$elemMatch':{'system':'http://terminology.hl7.org/CodeSystem/v3-Confidentiality','code':'R'}}}}]}, {'_id':0}) | db.ExplanationOfBenefit_4_0_0.find({'$and':[{'meta.lastUpdated':{'$gt':ISODate('2025-01-02T00:00:00.000Z')}},{'patient._uuid':'Patient/24a5930e-11b4-5525-b482-669174917044'},{'meta.tag':{'$not':{'$elemMatch':{'system':'https://fhir.icanbwell.com/4_0_0/CodeSystem/server-behavior','code':'hidden'}}}},{'meta.security':{'$not':{'$elemMatch':{'system':'http://terminology.hl7.org/CodeSystem/v3-Confidentiality','code':'R'}}}}]}, {'_id':0}) | db.FamilyMemberHistory_4_0_0.find({'$and':[{'meta.lastUpdated':{'$gt':ISODate('2025-01-02T00:00:00.000Z')}},{'patient._uuid':'Patient/24a5930e-11b4-5525-b482-669174917044'},{'meta.tag':{'$not':{'$elemMatch':{'system':'https://fhir.icanbwell.com/4_0_0/CodeSystem/server-behavior','code':'hidden'}}}},{'meta.security':{'$not':{'$elemMatch':{'system':'http://terminology.hl7.org/CodeSystem/v3-Confidentiality','code':'R'}}}}]}, {'_id':0}) | db.Flag_4_0_0.find({'$and':[{'meta.lastUpdated':{'$gt':ISODate('2025-01-02T00:00:00.000Z')}},{'subject._uuid':'Patient/24a5930e-11b4-5525-b482-669174917044'},{'meta.tag':{'$not':{'$elemMatch':{'system':'https://fhir.icanbwell.com/4_0_0/CodeSystem/server-behavior','code':'hidden'}}}},{'meta.security':{'$not':{'$elemMatch':{'system':'http://terminology.hl7.org/CodeSystem/v3-Confidentiality','code':'R'}}}}]}, {'_id':0}) | db.Goal_4_0_0.find({'$and':[{'meta.lastUpdated':{'$gt':ISODate('2025-01-02T00:00:00.000Z')}},{'subject._uuid':'Patient/24a5930e-11b4-5525-b482-669174917044'},{'meta.tag':{'$not':{'$elemMatch':{'system':'https://fhir.icanbwell.com/4_0_0/CodeSystem/server-behavior','code':'hidden'}}}},{'meta.security':{'$not':{'$elemMatch':{'system':'http://terminology.hl7.org/CodeSystem/v3-Confidentiality','code':'R'}}}}]}, {'_id':0}) | db.Group_4_0_0.find({'$and':[{'meta.lastUpdated':{'$gt':ISODate('2025-01-02T00:00:00.000Z')}},{'member.entity._uuid':'Patient/24a5930e-11b4-5525-b482-669174917044'},{'meta.tag':{'$not':{'$elemMatch':{'system':'https://fhir.icanbwell.com/4_0_0/CodeSystem/server-behavior','code':'hidden'}}}},{'meta.security':{'$not':{'$elemMatch':{'system':'http://terminology.hl7.org/CodeSystem/v3-Confidentiality','code':'R'}}}}]}, {'_id':0}) | db.GuidanceResponse_4_0_0.find({'$and':[{'meta.lastUpdated':{'$gt':ISODate('2025-01-02T00:00:00.000Z')}},{'subject._uuid':'Patient/24a5930e-11b4-5525-b482-669174917044'},{'meta.tag':{'$not':{'$elemMatch':{'system':'https://fhir.icanbwell.com/4_0_0/CodeSystem/server-behavior','code':'hidden'}}}},{'meta.security':{'$not':{'$elemMatch':{'system':'http://terminology.hl7.org/CodeSystem/v3-Confidentiality','code':'R'}}}}]}, {'_id':0}) | db.ImagingStudy_4_0_0.find({'$and':[{'meta.lastUpdated':{'$gt':ISODate('2025-01-02T00:00:00.000Z')}},{'subject._uuid':'Patient/24a5930e-11b4-5525-b482-669174917044'},{'meta.tag':{'$not':{'$elemMatch':{'system':'https://fhir.icanbwell.com/4_0_0/CodeSystem/server-behavior','code':'hidden'}}}},{'meta.security':{'$not':{'$elemMatch':{'system':'http://terminology.hl7.org/CodeSystem/v3-Confidentiality','code':'R'}}}}]}, {'_id':0}) | db.Immunization_4_0_0.find({'$and':[{'meta.lastUpdated':{'$gt':ISODate('2025-01-02T00:00:00.000Z')}},{'patient._uuid':'Patient/24a5930e-11b4-5525-b482-669174917044'},{'meta.tag':{'$not':{'$elemMatch':{'system':'https://fhir.icanbwell.com/4_0_0/CodeSystem/server-behavior','code':'hidden'}}}},{'meta.security':{'$not':{'$elemMatch':{'system':'http://terminology.hl7.org/CodeSystem/v3-Confidentiality','code':'R'}}}}]}, {'_id':0}) | db.ImmunizationEvaluation_4_0_0.find({'$and':[{'meta.lastUpdated':{'$gt':ISODate('2025-01-02T00:00:00.000Z')}},{'patient._uuid':'Patient/24a5930e-11b4-5525-b482-669174917044'},{'meta.tag':{'$not':{'$elemMatch':{'system':'https://fhir.icanbwell.com/4_0_0/CodeSystem/server-behavior','code':'hidden'}}}},{'meta.security':{'$not':{'$elemMatch':{'system':'http://terminology.hl7.org/CodeSystem/v3-Confidentiality','code':'R'}}}}]}, {'_id':0}) | db.ImmunizationRecommendation_4_0_0.find({'$and':[{'meta.lastUpdated':{'$gt':ISODate('2025-01-02T00:00:00.000Z')}},{'patient._uuid':'Patient/24a5930e-11b4-5525-b482-669174917044'},{'meta.tag':{'$not':{'$elemMatch':{'system':'https://fhir.icanbwell.com/4_0_0/CodeSystem/server-behavior','code':'hidden'}}}},{'meta.security':{'$not':{'$elemMatch':{'system':'http://terminology.hl7.org/CodeSystem/v3-Confidentiality','code':'R'}}}}]}, {'_id':0}) | db.Invoice_4_0_0.find({'$and':[{'meta.lastUpdated':{'$gt':ISODate('2025-01-02T00:00:00.000Z')}},{'subject._uuid':'Patient/24a5930e-11b4-5525-b482-669174917044'},{'meta.tag':{'$not':{'$elemMatch':{'system':'https://fhir.icanbwell.com/4_0_0/CodeSystem/server-behavior','code':'hidden'}}}},{'meta.security':{'$not':{'$elemMatch':{'system':'http://terminology.hl7.org/CodeSystem/v3-Confidentiality','code':'R'}}}}]}, {'_id':0}) | db.Linkage_4_0_0.find({'$and':[{'meta.lastUpdated':{'$gt':ISODate('2025-01-02T00:00:00.000Z')}},{'item.resource._uuid':'Patient/24a5930e-11b4-5525-b482-669174917044'},{'meta.tag':{'$not':{'$elemMatch':{'system':'https://fhir.icanbwell.com/4_0_0/CodeSystem/server-behavior','code':'hidden'}}}},{'meta.security':{'$not':{'$elemMatch':{'system':'http://terminology.hl7.org/CodeSystem/v3-Confidentiality','code':'R'}}}}]}, {'_id':0}) | db.List_4_0_0.find({'$and':[{'meta.lastUpdated':{'$gt':ISODate('2025-01-02T00:00:00.000Z')}},{'subject._uuid':'Patient/24a5930e-11b4-5525-b482-669174917044'},{'meta.tag':{'$not':{'$elemMatch':{'system':'https://fhir.icanbwell.com/4_0_0/CodeSystem/server-behavior','code':'hidden'}}}},{'meta.security':{'$not':{'$elemMatch':{'system':'http://terminology.hl7.org/CodeSystem/v3-Confidentiality','code':'R'}}}}]}, {'_id':0}) | db.MeasureReport_4_0_0.find({'$and':[{'meta.lastUpdated':{'$gt':ISODate('2025-01-02T00:00:00.000Z')}},{'subject._uuid':'Patient/24a5930e-11b4-5525-b482-669174917044'},{'meta.tag':{'$not':{'$elemMatch':{'system':'https://fhir.icanbwell.com/4_0_0/CodeSystem/server-behavior','code':'hidden'}}}},{'meta.security':{'$not':{'$elemMatch':{'system':'http://terminology.hl7.org/CodeSystem/v3-Confidentiality','code':'R'}}}}]}, {'_id':0}) | db.Media_4_0_0.find({'$and':[{'meta.lastUpdated':{'$gt':ISODate('2025-01-02T00:00:00.000Z')}},{'subject._uuid':'Patient/24a5930e-11b4-5525-b482-669174917044'},{'meta.tag':{'$not':{'$elemMatch':{'system':'https://fhir.icanbwell.com/4_0_0/CodeSystem/server-behavior','code':'hidden'}}}},{'meta.security':{'$not':{'$elemMatch':{'system':'http://terminology.hl7.org/CodeSystem/v3-Confidentiality','code':'R'}}}}]}, {'_id':0}) | db.MedicationAdministration_4_0_0.find({'$and':[{'meta.lastUpdated':{'$gt':ISODate('2025-01-02T00:00:00.000Z')}},{'subject._uuid':'Patient/24a5930e-11b4-5525-b482-669174917044'},{'meta.tag':{'$not':{'$elemMatch':{'system':'https://fhir.icanbwell.com/4_0_0/CodeSystem/server-behavior','code':'hidden'}}}},{'meta.security':{'$not':{'$elemMatch':{'system':'http://terminology.hl7.org/CodeSystem/v3-Confidentiality','code':'R'}}}}]}, {'_id':0}) | db.MedicationDispense_4_0_0.find({'$and':[{'meta.lastUpdated':{'$gt':ISODate('2025-01-02T00:00:00.000Z')}},{'subject._uuid':'Patient/24a5930e-11b4-5525-b482-669174917044'},{'meta.tag':{'$not':{'$elemMatch':{'system':'https://fhir.icanbwell.com/4_0_0/CodeSystem/server-behavior','code':'hidden'}}}},{'meta.security':{'$not':{'$elemMatch':{'system':'http://terminology.hl7.org/CodeSystem/v3-Confidentiality','code':'R'}}}}]}, {'_id':0}) | db.MedicationRequest_4_0_0.find({'$and':[{'meta.lastUpdated':{'$gt':ISODate('2025-01-02T00:00:00.000Z')}},{'subject._uuid':'Patient/24a5930e-11b4-5525-b482-669174917044'},{'meta.tag':{'$not':{'$elemMatch':{'system':'https://fhir.icanbwell.com/4_0_0/CodeSystem/server-behavior','code':'hidden'}}}},{'meta.security':{'$not':{'$elemMatch':{'system':'http://terminology.hl7.org/CodeSystem/v3-Confidentiality','code':'R'}}}}]}, {'_id':0}) | db.MedicationStatement_4_0_0.find({'$and':[{'meta.lastUpdated':{'$gt':ISODate('2025-01-02T00:00:00.000Z')}},{'subject._uuid':'Patient/24a5930e-11b4-5525-b482-669174917044'},{'meta.tag':{'$not':{'$elemMatch':{'system':'https://fhir.icanbwell.com/4_0_0/CodeSystem/server-behavior','code':'hidden'}}}},{'meta.security':{'$not':{'$elemMatch':{'system':'http://terminology.hl7.org/CodeSystem/v3-Confidentiality','code':'R'}}}}]}, {'_id':0}) | db.MolecularSequence_4_0_0.find({'$and':[{'meta.lastUpdated':{'$gt':ISODate('2025-01-02T00:00:00.000Z')}},{'patient._uuid':'Patient/24a5930e-11b4-5525-b482-669174917044'},{'meta.tag':{'$not':{'$elemMatch':{'system':'https://fhir.icanbwell.com/4_0_0/CodeSystem/server-behavior','code':'hidden'}}}},{'meta.security':{'$not':{'$elemMatch':{'system':'http://terminology.hl7.org/CodeSystem/v3-Confidentiality','code':'R'}}}}]}, {'_id':0}) | db.NutritionOrder_4_0_0.find({'$and':[{'meta.lastUpdated':{'$gt':ISODate('2025-01-02T00:00:00.000Z')}},{'patient._uuid':'Patient/24a5930e-11b4-5525-b482-669174917044'},{'meta.tag':{'$not':{'$elemMatch':{'system':'https://fhir.icanbwell.com/4_0_0/CodeSystem/server-behavior','code':'hidden'}}}},{'meta.security':{'$not':{'$elemMatch':{'system':'http://terminology.hl7.org/CodeSystem/v3-Confidentiality','code':'R'}}}}]}, {'_id':0}) | db.Observation_4_0_0.find({'$and':[{'meta.lastUpdated':{'$gt':ISODate('2025-01-02T00:00:00.000Z')}},{'subject._uuid':'Patient/24a5930e-11b4-5525-b482-669174917044'},{'meta.tag':{'$not':{'$elemMatch':{'system':'https://fhir.icanbwell.com/4_0_0/CodeSystem/server-behavior','code':'hidden'}}}},{'meta.security':{'$not':{'$elemMatch':{'system':'http://terminology.hl7.org/CodeSystem/v3-Confidentiality','code':'R'}}}}]}, {'_id':0}) | db.Patient_4_0_0.find({'$and':[{'meta.lastUpdated':{'$gt':ISODate('2025-01-02T00:00:00.000Z')}},{'link.other._uuid':'Patient/24a5930e-11b4-5525-b482-669174917044'},{'meta.tag':{'$not':{'$elemMatch':{'system':'https://fhir.icanbwell.com/4_0_0/CodeSystem/server-behavior','code':'hidden'}}}},{'meta.security':{'$not':{'$elemMatch':{'system':'http://terminology.hl7.org/CodeSystem/v3-Confidentiality','code':'R'}}}}]}, {'_id':0}) | db.PaymentNotice_4_0_0.find({'$and':[{'meta.lastUpdated':{'$gt':ISODate('2025-01-02T00:00:00.000Z')}},{'request._uuid':'Patient/24a5930e-11b4-5525-b482-669174917044'},{'meta.tag':{'$not':{'$elemMatch':{'system':'https://fhir.icanbwell.com/4_0_0/CodeSystem/server-behavior','code':'hidden'}}}},{'meta.security':{'$not':{'$elemMatch':{'system':'http://terminology.hl7.org/CodeSystem/v3-Confidentiality','code':'R'}}}}]}, {'_id':0}) | db.Person_4_0_0.find({'$and':[{'meta.lastUpdated':{'$gt':ISODate('2025-01-02T00:00:00.000Z')}},{'link.target._uuid':'Patient/24a5930e-11b4-5525-b482-669174917044'},{'meta.tag':{'$not':{'$elemMatch':{'system':'https://fhir.icanbwell.com/4_0_0/CodeSystem/server-behavior','code':'hidden'}}}},{'_uuid':'5f3ca115-8630-5e55-a97d-4d6ee26c0adc'},{'meta.security':{'$not':{'$elemMatch':{'system':'http://terminology.hl7.org/CodeSystem/v3-Confidentiality','code':'R'}}}}]}, {'_id':0}) | db.Procedure_4_0_0.find({'$and':[{'meta.lastUpdated':{'$gt':ISODate('2025-01-02T00:00:00.000Z')}},{'$nor':[{'_uuid':{'$in':['58502df6-19f1-4c47-b391-6efd5728e2c7','dc56f59d-71e5-4b11-98cd-9b9a0dee730c']}}]},{'subject._uuid':'Patient/24a5930e-11b4-5525-b482-669174917044'},{'meta.tag':{'$not':{'$elemMatch':{'system':'https://fhir.icanbwell.com/4_0_0/CodeSystem/server-behavior','code':'hidden'}}}},{'meta.security':{'$not':{'$elemMatch':{'system':'http://terminology.hl7.org/CodeSystem/v3-Confidentiality','code':'R'}}}}]}, {'_id':0}) | db.Provenance_4_0_0.find({'$and':[{'meta.lastUpdated':{'$gt':ISODate('2025-01-02T00:00:00.000Z')}},{'target._uuid':'Patient/24a5930e-11b4-5525-b482-669174917044'},{'meta.tag':{'$not':{'$elemMatch':{'system':'https://fhir.icanbwell.com/4_0_0/CodeSystem/server-behavior','code':'hidden'}}}},{'meta.security':{'$not':{'$elemMatch':{'system':'http://terminology.hl7.org/CodeSystem/v3-Confidentiality','code':'R'}}}}]}, {'_id':0}) | db.QuestionnaireResponse_4_0_0.find({'$and':[{'meta.lastUpdated':{'$gt':ISODate('2025-01-02T00:00:00.000Z')}},{'subject._uuid':'Patient/24a5930e-11b4-5525-b482-669174917044'},{'meta.tag':{'$not':{'$elemMatch':{'system':'https://fhir.icanbwell.com/4_0_0/CodeSystem/server-behavior','code':'hidden'}}}},{'meta.security':{'$not':{'$elemMatch':{'system':'http://terminology.hl7.org/CodeSystem/v3-Confidentiality','code':'R'}}}}]}, {'_id':0}) | db.RelatedPerson_4_0_0.find({'$and':[{'meta.lastUpdated':{'$gt':ISODate('2025-01-02T00:00:00.000Z')}},{'patient._uuid':'Patient/24a5930e-11b4-5525-b482-669174917044'},{'meta.tag':{'$not':{'$elemMatch':{'system':'https://fhir.icanbwell.com/4_0_0/CodeSystem/server-behavior','code':'hidden'}}}},{'meta.security':{'$not':{'$elemMatch':{'system':'http://terminology.hl7.org/CodeSystem/v3-Confidentiality','code':'R'}}}}]}, {'_id':0}) | db.RequestGroup_4_0_0.find({'$and':[{'meta.lastUpdated':{'$gt':ISODate('2025-01-02T00:00:00.000Z')}},{'subject._uuid':'Patient/24a5930e-11b4-5525-b482-669174917044'},{'meta.tag':{'$not':{'$elemMatch':{'system':'https://fhir.icanbwell.com/4_0_0/CodeSystem/server-behavior','code':'hidden'}}}},{'meta.security':{'$not':{'$elemMatch':{'system':'http://terminology.hl7.org/CodeSystem/v3-Confidentiality','code':'R'}}}}]}, {'_id':0}) | db.ResearchSubject_4_0_0.find({'$and':[{'meta.lastUpdated':{'$gt':ISODate('2025-01-02T00:00:00.000Z')}},{'individual._uuid':'Patient/24a5930e-11b4-5525-b482-669174917044'},{'meta.tag':{'$not':{'$elemMatch':{'system':'https://fhir.icanbwell.com/4_0_0/CodeSystem/server-behavior','code':'hidden'}}}},{'meta.security':{'$not':{'$elemMatch':{'system':'http://terminology.hl7.org/CodeSystem/v3-Confidentiality','code':'R'}}}}]}, {'_id':0}) | db.RiskAssessment_4_0_0.find({'$and':[{'meta.lastUpdated':{'$gt':ISODate('2025-01-02T00:00:00.000Z')}},{'subject._uuid':'Patient/24a5930e-11b4-5525-b482-669174917044'},{'meta.tag':{'$not':{'$elemMatch':{'system':'https://fhir.icanbwell.com/4_0_0/CodeSystem/server-behavior','code':'hidden'}}}},{'meta.security':{'$not':{'$elemMatch':{'system':'http://terminology.hl7.org/CodeSystem/v3-Confidentiality','code':'R'}}}}]}, {'_id':0}) | db.Schedule_4_0_0.find({'$and':[{'meta.lastUpdated':{'$gt':ISODate('2025-01-02T00:00:00.000Z')}},{'actor._uuid':'Patient/24a5930e-11b4-5525-b482-669174917044'},{'meta.tag':{'$not':{'$elemMatch':{'system':'https://fhir.icanbwell.com/4_0_0/CodeSystem/server-behavior','code':'hidden'}}}},{'meta.security':{'$not':{'$elemMatch':{'system':'http://terminology.hl7.org/CodeSystem/v3-Confidentiality','code':'R'}}}}]}, {'_id':0}) | db.ServiceRequest_4_0_0.find({'$and':[{'meta.lastUpdated':{'$gt':ISODate('2025-01-02T00:00:00.000Z')}},{'subject._uuid':'Patient/24a5930e-11b4-5525-b482-669174917044'},{'meta.tag':{'$not':{'$elemMatch':{'system':'https://fhir.icanbwell.com/4_0_0/CodeSystem/server-behavior','code':'hidden'}}}},{'meta.security':{'$not':{'$elemMatch':{'system':'http://terminology.hl7.org/CodeSystem/v3-Confidentiality','code':'R'}}}}]}, {'_id':0}) | db.Specimen_4_0_0.find({'$and':[{'meta.lastUpdated':{'$gt':ISODate('2025-01-02T00:00:00.000Z')}},{'subject._uuid':'Patient/24a5930e-11b4-5525-b482-669174917044'},{'meta.tag':{'$not':{'$elemMatch':{'system':'https://fhir.icanbwell.com/4_0_0/CodeSystem/server-behavior','code':'hidden'}}}},{'meta.security':{'$not':{'$elemMatch':{'system':'http://terminology.hl7.org/CodeSystem/v3-Confidentiality','code':'R'}}}}]}, {'_id':0}) | db.Subscription_4_0_0.find({'$and':[{'meta.lastUpdated':{'$gt':ISODate('2025-01-02T00:00:00.000Z')}},{'meta.tag':{'$not':{'$elemMatch':{'system':'https://fhir.icanbwell.com/4_0_0/CodeSystem/server-behavior','code':'hidden'}}}},{'extension':{'$elemMatch':{'url':'https://icanbwell.com/codes/client_person_id','valueString':'5f3ca115-8630-5e55-a97d-4d6ee26c0adc'}}},{'meta.security':{'$not':{'$elemMatch':{'system':'http://terminology.hl7.org/CodeSystem/v3-Confidentiality','code':'R'}}}},{'extension':{'$elemMatch':{'url':'https://icanbwell.com/codes/source_patient_id','valueString':'patient1'}}},{'extension':{'$elemMatch':{'url':'https://icanbwell.com/codes/service_slug','valueString':'healthsystem1'}}}]}, {'_id':0}) | db.SubscriptionStatus_4_0_0.find({'$and':[{'meta.lastUpdated':{'$gt':ISODate('2025-01-02T00:00:00.000Z')}},{'meta.tag':{'$not':{'$elemMatch':{'system':'https://fhir.icanbwell.com/4_0_0/CodeSystem/server-behavior','code':'hidden'}}}},{'extension':{'$elemMatch':{'url':'https://icanbwell.com/codes/client_person_id','valueString':'5f3ca115-8630-5e55-a97d-4d6ee26c0adc'}}},{'meta.security':{'$not':{'$elemMatch':{'system':'http://terminology.hl7.org/CodeSystem/v3-Confidentiality','code':'R'}}}},{'extension':{'$elemMatch':{'url':'https://icanbwell.com/codes/source_patient_id','valueString':'patient1'}}},{'extension':{'$elemMatch':{'url':'https://icanbwell.com/codes/service_slug','valueString':'healthsystem1'}}}]}, {'_id':0}) | db.SubscriptionTopic_4_0_0.find({'$and':[{'meta.lastUpdated':{'$gt':ISODate('2025-01-02T00:00:00.000Z')}},{'meta.tag':{'$not':{'$elemMatch':{'system':'https://fhir.icanbwell.com/4_0_0/CodeSystem/server-behavior','code':'hidden'}}}},{'identifier':{'$elemMatch':{'system':'https://icanbwell.com/codes/client_person_id','value':'5f3ca115-8630-5e55-a97d-4d6ee26c0adc'}}},{'meta.security':{'$not':{'$elemMatch':{'system':'http://terminology.hl7.org/CodeSystem/v3-Confidentiality','code':'R'}}}},{'identifier':{'$elemMatch':{'system':'https://icanbwell.com/codes/source_patient_id','value':'patient1'}}},{'identifier':{'$elemMatch':{'system':'https://icanbwell.com/codes/service_slug','value':'healthsystem1'}}}]}, {'_id':0}) | db.SupplyDelivery_4_0_0.find({'$and':[{'meta.lastUpdated':{'$gt':ISODate('2025-01-02T00:00:00.000Z')}},{'patient._uuid':'Patient/24a5930e-11b4-5525-b482-669174917044'},{'meta.tag':{'$not':{'$elemMatch':{'system':'https://fhir.icanbwell.com/4_0_0/CodeSystem/server-behavior','code':'hidden'}}}},{'meta.security':{'$not':{'$elemMatch':{'system':'http://terminology.hl7.org/CodeSystem/v3-Confidentiality','code':'R'}}}}]}, {'_id':0}) | db.SupplyRequest_4_0_0.find({'$and':[{'meta.lastUpdated':{'$gt':ISODate('2025-01-02T00:00:00.000Z')}},{'requester._uuid':'Patient/24a5930e-11b4-5525-b482-669174917044'},{'meta.tag':{'$not':{'$elemMatch':{'system':'https://fhir.icanbwell.com/4_0_0/CodeSystem/server-behavior','code':'hidden'}}}},{'meta.security':{'$not':{'$elemMatch':{'system':'http://terminology.hl7.org/CodeSystem/v3-Confidentiality','code':'R'}}}}]}, {'_id':0}) | db.Task_4_0_0.find({'$and':[{'meta.lastUpdated':{'$gt':ISODate('2025-01-02T00:00:00.000Z')}},{'for._uuid':'Patient/24a5930e-11b4-5525-b482-669174917044'},{'meta.tag':{'$not':{'$elemMatch':{'system':'https://fhir.icanbwell.com/4_0_0/CodeSystem/server-behavior','code':'hidden'}}}},{'meta.security':{'$not':{'$elemMatch':{'system':'http://terminology.hl7.org/CodeSystem/v3-Confidentiality','code':'R'}}}}]}, {'_id':0}) | db.VisionPrescription_4_0_0.find({'$and':[{'meta.lastUpdated':{'$gt':ISODate('2025-01-02T00:00:00.000Z')}},{'patient._uuid':'Patient/24a5930e-11b4-5525-b482-669174917044'},{'meta.tag':{'$not':{'$elemMatch':{'system':'https://fhir.icanbwell.com/4_0_0/CodeSystem/server-behavior','code':'hidden'}}}},{'meta.security':{'$not':{'$elemMatch':{'system':'http://terminology.hl7.org/CodeSystem/v3-Confidentiality','code':'R'}}}}]}, {'_id':0}) | db.Organization_4_0_0.find({'$and':[{'meta.lastUpdated':{'$gt':ISODate('2025-01-02T00:00:00.000Z')}},{'_uuid':'214ca533-fb96-562d-824d-3aca1406f3fb'}]}, {'_id':0}) | db.Practitioner_4_0_0.find({'$and':[{'meta.lastUpdated':{'$gt':ISODate('2025-01-02T00:00:00.000Z')}},{'_uuid':'aa8a8ff8-af25-5878-8cf3-bc74227d44dd'}]}, {'_id':0}) | db.PaymentReconciliation_4_0_0.find({'$and':[{'meta.lastUpdated':{'$gt':ISODate('2025-01-02T00:00:00.000Z')}},{'_uuid':'d45e43c6-170f-52e1-a157-692ee5c9704b'}]}, {'_id':0}) | db.Organization_4_0_0.find({'$and':[{'meta.lastUpdated':{'$gt':ISODate('2025-01-02T00:00:00.000Z')}},{'_uuid':'d187d5ce-f842-5e13-a4db-961d8e728ebc'}]}, {'_id':0}) | db.Organization_4_0_0.find({'$and':[{'meta.lastUpdated':{'$gt':ISODate('2025-01-02T00:00:00.000Z')}},{'_uuid':'7712bd08-fd99-561d-9324-d2fcd41fb009'}]}, {'_id':0})"
      },
      {
        "system": "https://www.icanbwell.com/queryCollection",
        "code": "Patient_4_0_0|Consent_4_0_0|Account_4_0_0|AdverseEvent_4_0_0|AllergyIntolerance_4_0_0|Appointment_4_0_0|AppointmentResponse_4_0_0|BiologicallyDerivedProduct_4_0_0|Basic_4_0_0|BodyStructure_4_0_0|CarePlan_4_0_0|CareTeam_4_0_0|ChargeItem_4_0_0|Claim_4_0_0|ClaimResponse_4_0_0|ClinicalImpression_4_0_0|Communication_4_0_0|CommunicationRequest_4_0_0|Composition_4_0_0|Condition_4_0_0|Consent_4_0_0|Contract_4_0_0|Coverage_4_0_0|CoverageEligibilityRequest_4_0_0|CoverageEligibilityResponse_4_0_0|DetectedIssue_4_0_0|Device_4_0_0|DeviceRequest_4_0_0|DeviceUseStatement_4_0_0|DiagnosticReport_4_0_0|DocumentManifest_4_0_0|DocumentReference_4_0_0|Encounter_4_0_0|EnrollmentRequest_4_0_0|EpisodeOfCare_4_0_0|ExplanationOfBenefit_4_0_0|FamilyMemberHistory_4_0_0|Flag_4_0_0|Goal_4_0_0|Group_4_0_0|GuidanceResponse_4_0_0|ImagingStudy_4_0_0|Immunization_4_0_0|ImmunizationEvaluation_4_0_0|ImmunizationRecommendation_4_0_0|Invoice_4_0_0|Linkage_4_0_0|List_4_0_0|MeasureReport_4_0_0|Media_4_0_0|MedicationAdministration_4_0_0|MedicationDispense_4_0_0|MedicationRequest_4_0_0|MedicationStatement_4_0_0|MolecularSequence_4_0_0|NutritionOrder_4_0_0|Observation_4_0_0|Patient_4_0_0|PaymentNotice_4_0_0|Person_4_0_0|Procedure_4_0_0|Provenance_4_0_0|QuestionnaireResponse_4_0_0|RelatedPerson_4_0_0|RequestGroup_4_0_0|ResearchSubject_4_0_0|RiskAssessment_4_0_0|Schedule_4_0_0|ServiceRequest_4_0_0|Specimen_4_0_0|Subscription_4_0_0|SubscriptionStatus_4_0_0|SubscriptionTopic_4_0_0|SupplyDelivery_4_0_0|SupplyRequest_4_0_0|Task_4_0_0|VisionPrescription_4_0_0|Organization_4_0_0|Practitioner_4_0_0|PaymentReconciliation_4_0_0|Organization_4_0_0|Organization_4_0_0"
      },
      {
        "system": "https://www.icanbwell.com/queryOptions",
        "display": "[{'projection':{'_id':0}},{'projection':{'_id':0}},{'projection':{'_id':0}},{'projection':{'_id':0}},{'projection':{'_id':0}},{'projection':{'_id':0}},{'projection':{'_id':0}},{'projection':{'_id':0}},{'projection':{'_id':0}},{'projection':{'_id':0}},{'projection':{'_id':0}},{'projection':{'_id':0}},{'projection':{'_id':0}},{'projection':{'_id':0}},{'projection':{'_id':0}},{'projection':{'_id':0}},{'projection':{'_id':0}},{'projection':{'_id':0}},{'projection':{'_id':0}},{'projection':{'_id':0}},{'projection':{'_id':0}},{'projection':{'_id':0}},{'projection':{'_id':0}},{'projection':{'_id':0}},{'projection':{'_id':0}},{'projection':{'_id':0}},{'projection':{'_id':0}},{'projection':{'_id':0}},{'projection':{'_id':0}},{'projection':{'_id':0}},{'projection':{'_id':0}},{'projection':{'_id':0}},{'projection':{'_id':0}},{'projection':{'_id':0}},{'projection':{'_id':0}},{'projection':{'_id':0}},{'projection':{'_id':0}},{'projection':{'_id':0}},{'projection':{'_id':0}},{'projection':{'_id':0}},{'projection':{'_id':0}},{'projection':{'_id':0}},{'projection':{'_id':0}},{'projection':{'_id':0}},{'projection':{'_id':0}},{'projection':{'_id':0}},{'projection':{'_id':0}},{'projection':{'_id':0}},{'projection':{'_id':0}},{'projection':{'_id':0}},{'projection':{'_id':0}},{'projection':{'_id':0}},{'projection':{'_id':0}},{'projection':{'_id':0}},{'projection':{'_id':0}},{'projection':{'_id':0}},{'projection':{'_id':0}},{'projection':{'_id':0}},{'projection':{'_id':0}},{'projection':{'_id':0}},{'projection':{'_id':0}},{'projection':{'_id':0}},{'projection':{'_id':0}},{'projection':{'_id':0}},{'projection':{'_id':0}},{'projection':{'_id':0}},{'projection':{'_id':0}},{'projection':{'_id':0}},{'projection':{'_id':0}},{'projection':{'_id':0}},{'projection':{'_id':0}},{'projection':{'_id':0}},{'projection':{'_id':0}},{'projection':{'_id':0}},{'projection':{'_id':0}},{'projection':{'_id':0}},{'projection':{'_id':0}},{'projection':{'_id':0}},{'projection':{'_id':0}},{'projection':{'_id':0}},{'projection':{'_id':0}},{'projection':{'_id':0}}]"
      },
      { "system": "https://www.icanbwell.com/queryFields", "display": "[]" },
      { "system": "https://www.icanbwell.com/queryTime", "display": "0.078" },
      {
        "system": "https://www.icanbwell.com/queryOptimization",
        "display": "{'useTwoStepSearchOptimization':undefined}"
      },
      {
        "system": "https://www.icanbwell.com/queryExplain"
      },
      {
        "system": "https://www.icanbwell.com/queryExplainSimple"
      }
    ]
  }
}
