{
  "entry": [
    {
      "id": "patient1",
      "resource": {
        "resourceType": "Patient",
        "id": "patient1",
        "meta": {
          "versionId": "1",
          "lastUpdated": "2023-12-20T03:30:49.000Z",
          "source": "http://healthsystem1health.org/provider",
          "security": [
            {
              "system": "https://www.icanbwell.com/access",
              "code": "healthsystem1",
              "id": "21ef6cd5-667d-53e9-a787-f6fc10847183"
            },
            {
              "system": "https://www.icanbwell.com/owner",
              "code": "healthsystem1",
              "id": "6e1a1bd3-9764-55e3-93a3-4cc9f74b3f43"
            },
            {
              "system": "https://www.icanbwell.com/sourceAssigningAuthority",
              "code": "healthsystem1",
              "id": "e4a94e06-a98b-5f89-8724-d2a8cc5bfeef"
            }
          ]
        },
        "identifier": [
          {
            "id": "sourceId",
            "system": "https://www.icanbwell.com/sourceId",
            "value": "patient1"
          },
          {
            "id": "uuid",
            "system": "https://www.icanbwell.com/uuid",
            "value": "24a5930e-11b4-5525-b482-669174917044"
          }
        ],
        "name": [
          {
            "use": "usual",
            "text": "t",
            "family": "PATIENT1",
            "given": [
              "SHYLA"
            ]
          }
        ],
        "gender": "female",
        "birthDate": "2017-01-01"
      }
    },
    {
      "id": "example",
      "resource": {
        "resourceType": "Account",
        "id": "example",
        "meta": {
          "versionId": "1",
          "lastUpdated": "2023-12-20T03:30:50.000Z",
          "source": "http://healthsystem1health.org/provider",
          "security": [
            {
              "system": "https://www.icanbwell.com/access",
              "code": "healthsystem1",
              "id": "21ef6cd5-667d-53e9-a787-f6fc10847183"
            },
            {
              "system": "https://www.icanbwell.com/owner",
              "code": "healthsystem1",
              "id": "6e1a1bd3-9764-55e3-93a3-4cc9f74b3f43"
            },
            {
              "system": "https://www.icanbwell.com/sourceAssigningAuthority",
              "code": "healthsystem1",
              "id": "e4a94e06-a98b-5f89-8724-d2a8cc5bfeef"
            }
          ]
        },
        "text": {
          "status": "generated",
          "div": "<div xmlns=\"http://www.w3.org/1999/xhtml\">HACC Funded Billing for Peter James Chalmers</div>"
        },
        "identifier": [
          {
            "system": "urn:oid:0.1.2.3.4.5.6.7",
            "value": "654321"
          },
          {
            "id": "sourceId",
            "system": "https://www.icanbwell.com/sourceId",
            "value": "example"
          },
          {
            "id": "uuid",
            "system": "https://www.icanbwell.com/uuid",
            "value": "ce2b3f55-8a3b-5f06-a449-708dd992119e"
          }
        ],
        "status": "active",
        "type": {
          "coding": [
            {
              "id": "335d2e6f-c389-590f-ade8-d44615adebd2",
              "system": "http://terminology.hl7.org/CodeSystem/v3-ActCode",
              "code": "PBILLACCT",
              "display": "patient billing account"
            }
          ],
          "text": "patient"
        },
        "name": "HACC Funded Billing for Peter James Chalmers",
        "subject": [
          {
            "extension": [
              {
                "id": "sourceId",
                "url": "https://www.icanbwell.com/sourceId",
                "valueString": "Patient/patient1"
              },
              {
                "id": "uuid",
                "url": "https://www.icanbwell.com/uuid",
                "valueString": "Patient/24a5930e-11b4-5525-b482-669174917044"
              },
              {
                "id": "sourceAssigningAuthority",
                "url": "https://www.icanbwell.com/sourceAssigningAuthority",
                "valueString": "healthsystem1"
              }
            ],
            "reference": "Patient/patient1",
            "display": "Peter James Chalmers"
          }
        ],
        "servicePeriod": {
          "start": "2016-01-01",
          "end": "2016-06-30"
        },
        "coverage": [
          {
            "coverage": {
              "extension": [
                {
                  "id": "sourceId",
                  "url": "https://www.icanbwell.com/sourceId",
                  "valueString": "Coverage/7546D"
                },
                {
                  "id": "uuid",
                  "url": "https://www.icanbwell.com/uuid",
                  "valueString": "Coverage/baab0c4a-2c6a-5acb-8d82-c039dd9b3efb"
                },
                {
                  "id": "sourceAssigningAuthority",
                  "url": "https://www.icanbwell.com/sourceAssigningAuthority",
                  "valueString": "healthsystem1"
                }
              ],
              "reference": "Coverage/7546D"
            },
            "priority": 1
          }
        ],
        "owner": {
          "extension": [
            {
              "id": "sourceId",
              "url": "https://www.icanbwell.com/sourceId",
              "valueString": "Organization/hl7"
            },
            {
              "id": "uuid",
              "url": "https://www.icanbwell.com/uuid",
              "valueString": "Organization/214ca533-fb96-562d-824d-3aca1406f3fb"
            },
            {
              "id": "sourceAssigningAuthority",
              "url": "https://www.icanbwell.com/sourceAssigningAuthority",
              "valueString": "healthsystem1"
            }
          ],
          "reference": "Organization/hl7"
        },
        "description": "Hospital charges"
      }
    },
    {
      "id": "bio1",
      "resource": {
        "collection": {
          "source": {
            "extension": [
              {
                "id": "sourceId",
                "url": "https://www.icanbwell.com/sourceId",
                "valueString": "Patient/patient1"
              },
              {
                "id": "uuid",
                "url": "https://www.icanbwell.com/uuid",
                "valueString": "Patient/24a5930e-11b4-5525-b482-669174917044"
              },
              {
                "id": "sourceAssigningAuthority",
                "url": "https://www.icanbwell.com/sourceAssigningAuthority",
                "valueString": "healthsystem1"
              }
            ],
            "reference": "Patient/patient1"
          }
        },
        "id": "bio1",
        "identifier": [
          {
            "id": "sourceId",
            "system": "https://www.icanbwell.com/sourceId",
            "value": "bio1"
          },
          {
            "id": "uuid",
            "system": "https://www.icanbwell.com/uuid",
            "value": "395f9ff4-9012-5482-8ea8-d59a4ca9fc20"
          }
        ],
        "meta": {
          "versionId": "1",
          "lastUpdated": "2025-04-16T09:34:35.043Z",
          "source": "https://www.icanbwell.com",
          "security": [
            {
              "id": "6e1a1bd3-9764-55e3-93a3-4cc9f74b3f43",
              "system": "https://www.icanbwell.com/owner",
              "code": "healthsystem1"
            },
            {
              "id": "21ef6cd5-667d-53e9-a787-f6fc10847183",
              "system": "https://www.icanbwell.com/access",
              "code": "healthsystem1"
            },
            {
              "id": "e4a94e06-a98b-5f89-8724-d2a8cc5bfeef",
              "system": "https://www.icanbwell.com/sourceAssigningAuthority",
              "code": "healthsystem1"
            }
          ]
        },
        "resourceType": "BiologicallyDerivedProduct",
        "text": {
          "status": "generated",
          "div": "<div xmlns= code g/dL = 'g/dL')</span></td></tr></table></div>"
        }
      }
    },
    {
      "id": "2354-InAgeCohort",
      "resource": {
        "resourceType": "Observation",
        "id": "2354-InAgeCohort",
        "meta": {
          "versionId": "1",
          "lastUpdated": "2023-12-20T03:30:50.000Z",
          "source": "/patients",
          "security": [
            {
              "system": "https://www.icanbwell.com/owner",
              "code": "healthsystem1",
              "id": "6e1a1bd3-9764-55e3-93a3-4cc9f74b3f43"
            },
            {
              "system": "https://www.icanbwell.com/access",
              "code": "healthsystem1",
              "id": "21ef6cd5-667d-53e9-a787-f6fc10847183"
            },
            {
              "system": "https://www.icanbwell.com/vendor",
              "code": "B",
              "id": "675ab9a9-9fb6-5a48-8406-dce8c95a100b"
            },
            {
              "system": "https://www.icanbwell.com/access",
              "code": "B",
              "id": "073d5d2a-f3b8-5458-a152-5746f24b5488"
            },
            {
              "system": "https://www.icanbwell.com/sourceAssigningAuthority",
              "code": "healthsystem1",
              "id": "e4a94e06-a98b-5f89-8724-d2a8cc5bfeef"
            }
          ]
        },
        "identifier": [
          {
            "id": "sourceId",
            "system": "https://www.icanbwell.com/sourceId",
            "value": "2354-InAgeCohort"
          },
          {
            "id": "uuid",
            "system": "https://www.icanbwell.com/uuid",
            "value": "61886699-c643-5e3b-a074-569e4c43bddf"
          }
        ],
        "status": "final",
        "code": {
          "coding": [
            {
              "id": "62186514-8c23-5680-85fd-b6898c99eacb",
              "system": "http://www.icanbwell.com/cql/library",
              "code": "BMI001"
            },
            {
              "id": "77b3739c-725f-5833-a93e-cce825fb7b4a",
              "system": "http://www.icanbwell.com/cql/libraryVersion",
              "code": "1.0.0"
            },
            {
              "id": "977380c4-aca5-57a2-9eab-03eea0c1941d",
              "system": "http://www.icanbwell.com/cql/rule",
              "code": "InAgeCohort"
            }
          ]
        },
        "subject": {
          "extension": [
            {
              "id": "sourceId",
              "url": "https://www.icanbwell.com/sourceId",
              "valueString": "Patient/patient1"
            },
            {
              "id": "uuid",
              "url": "https://www.icanbwell.com/uuid",
              "valueString": "Patient/24a5930e-11b4-5525-b482-669174917044"
            },
            {
              "id": "sourceAssigningAuthority",
              "url": "https://www.icanbwell.com/sourceAssigningAuthority",
              "valueString": "healthsystem1"
            }
          ],
          "reference": "Patient/patient1"
        },
        "effectivePeriod": {
          "start": "2021-01-01T00:00:00.000Z",
          "end": "2021-12-31T00:00:00.000Z"
        },
        "issued": "2021-01-01T12:00:00.000Z",
        "valueBoolean": false
      }
    },
    {
      "id": "person1",
      "resource": {
        "resourceType": "Person",
        "id": "person1",
        "meta": {
          "versionId": "1",
          "lastUpdated": "2023-12-20T03:30:49.000Z",
          "source": "healthsystem1",
          "security": [
            {
              "system": "https://www.icanbwell.com/access",
              "code": "healthsystem1",
              "id": "21ef6cd5-667d-53e9-a787-f6fc10847183"
            },
            {
              "system": "https://www.icanbwell.com/owner",
              "code": "healthsystem1",
              "id": "6e1a1bd3-9764-55e3-93a3-4cc9f74b3f43"
            },
            {
              "system": "https://www.icanbwell.com/sourceAssigningAuthority",
              "code": "healthsystem1",
              "id": "e4a94e06-a98b-5f89-8724-d2a8cc5bfeef"
            }
          ]
        },
        "identifier": [
          {
            "id": "sourceId",
            "system": "https://www.icanbwell.com/sourceId",
            "value": "person1"
          },
          {
            "id": "uuid",
            "system": "https://www.icanbwell.com/uuid",
            "value": "5f3ca115-8630-5e55-a97d-4d6ee26c0adc"
          }
        ],
        "name": [
          {
            "use": "usual",
            "text": "t",
            "family": "person1",
            "given": [
              "OTHER"
            ]
          }
        ],
        "gender": "male",
        "birthDate": "1990-01-01",
        "link": [
          {
            "target": {
              "extension": [
                {
                  "id": "sourceId",
                  "url": "https://www.icanbwell.com/sourceId",
                  "valueString": "Patient/patient1"
                },
                {
                  "id": "uuid",
                  "url": "https://www.icanbwell.com/uuid",
                  "valueString": "Patient/24a5930e-11b4-5525-b482-669174917044"
                },
                {
                  "id": "sourceAssigningAuthority",
                  "url": "https://www.icanbwell.com/sourceAssigningAuthority",
                  "valueString": "healthsystem1"
                }
              ],
              "reference": "Patient/patient1|healthsystem1",
              "type": "Patient"
            },
            "assurance": "level4"
          }
        ]
      }
    },
    {
      "id": "care-plan-1",
      "resource": {
        "activity": [
          {
            "detail": {
              "code": {
                "coding": [
                  {
                    "id": "d031bf91-cea9-502e-98d0-cc0726f57818",
                    "code": "160670007",
                    "display": "Diabetic diet",
                    "system": "http://snomed.info/sct"
                  }
                ],
                "text": "Diabetic diet"
              },
              "status": "in-progress"
            }
          },
          {
            "detail": {
              "productReference": {
                "extension": [
                  {
                    "id": "sourceId",
                    "url": "https://www.icanbwell.com/sourceId",
                    "valueString": "Medication/b0e0113d-23a0-5742-a054-c8afe008010b"
                  },
                  {
                    "id": "uuid",
                    "url": "https://www.icanbwell.com/uuid",
                    "valueString": "Medication/b0e0113d-23a0-5742-a054-c8afe008010b"
                  },
                  {
                    "id": "sourceAssigningAuthority",
                    "url": "https://www.icanbwell.com/sourceAssigningAuthority",
                    "valueString": "healthsystem1"
                  }
                ],
                "reference": "Medication/b0e0113d-23a0-5742-a054-c8afe008010b"
              },
              "code": {
                "coding": [
                  {
                    "id": "d69d144f-975d-5487-bd99-8b369ef8a06e",
                    "code": "229065009",
                    "display": "Exercise therapy",
                    "system": "http://snomed.info/sct"
                  }
                ],
                "text": "Exercise therapy"
              },
              "status": "in-progress"
            }
          }
        ],
        "category": [
          {
            "coding": [
              {
                "id": "ab22e646-0212-52c1-af4f-125d2495a60c",
                "code": "assess-plan",
                "system": "http://hl7.org/fhir/us/core/CodeSystem/careplan-category"
              }
            ]
          },
          {
            "coding": [
              {
                "id": "3ed71cb5-65db-5565-80e0-528c590008f7",
                "code": "698360004",
                "display": "Diabetes self management plan",
                "system": "http://terminology.hl7.org/NamingSystem/mddid"
              }
            ],
            "text": "Diabetes self management plan"
          }
        ],
        "id": "care-plan-1",
        "identifier": [
          {
            "id": "sourceId",
            "system": "https://www.icanbwell.com/sourceId",
            "value": "care-plan-1"
          },
          {
            "id": "uuid",
            "system": "https://www.icanbwell.com/uuid",
            "value": "f49c5e15-81b5-57a9-bade-77e9e744fb2e"
          }
        ],
        "intent": "order",
        "meta": {
          "security": [
            {
              "system": "https://www.icanbwell.com/owner",
              "code": "healthsystem1",
              "id": "6e1a1bd3-9764-55e3-93a3-4cc9f74b3f43"
            },
            {
              "system": "https://www.icanbwell.com/access",
              "code": "healthsystem1",
              "id": "21ef6cd5-667d-53e9-a787-f6fc10847183"
            },
            {
              "system": "https://www.icanbwell.com/vendor",
              "code": "B",
              "id": "675ab9a9-9fb6-5a48-8406-dce8c95a100b"
            },
            {
              "system": "https://www.icanbwell.com/access",
              "code": "B",
              "id": "073d5d2a-f3b8-5458-a152-5746f24b5488"
            },
            {
              "code": "healthsystem1",
              "system": "https://www.icanbwell.com/sourceAssigningAuthority",
              "id": "e4a94e06-a98b-5f89-8724-d2a8cc5bfeef"
            }
          ],
          "source": "https://www.icanbwell.com",
          "versionId": "1"
        },
        "period": {
          "end": "2013-03-03T01:45:51+00:00",
          "start": "2012-03-03T01:45:51+00:00"
        },
        "resourceType": "CarePlan",
        "status": "active",
        "subject": {
          "extension": [
            {
              "id": "sourceId",
              "url": "https://www.icanbwell.com/sourceId",
              "valueString": "Patient/patient1"
            },
            {
              "id": "uuid",
              "url": "https://www.icanbwell.com/uuid",
              "valueString": "Patient/24a5930e-11b4-5525-b482-669174917044"
            },
            {
              "id": "sourceAssigningAuthority",
              "url": "https://www.icanbwell.com/sourceAssigningAuthority",
              "valueString": "healthsystem1"
            }
          ],
          "reference": "Patient/patient1"
        },
        "text": {
          "div": "<div xmlns=\"http://www.w3.org/1999/xhtml\">Care Plan for Diabetes self management plan.<br/>Activities: <ul><li>Diabetes self management plan</li><li>Diabetes self management plan</li></ul><br/>Care plan is meant to treat Prediabetes.</div>",
          "status": "generated"
        },
        "title": "Diabetes self management plan"
      }
    },
    {
      "id": "1",
      "resource": {
        "id": "1",
        "identifier": [
          {
            "id": "sourceId",
            "system": "https://www.icanbwell.com/sourceId",
            "value": "1"
          },
          {
            "id": "uuid",
            "system": "https://www.icanbwell.com/uuid",
            "value": "42f7c218-bb50-56d5-b0d4-fe92a8e5f23b"
          }
        ],
        "resourceType": "Condition",
        "meta": {
          "source": "test",
          "versionId": "1",
          "security": [
            {
              "system": "https://www.icanbwell.com/owner",
              "code": "healthsystem1",
              "id": "6e1a1bd3-9764-55e3-93a3-4cc9f74b3f43"
            },
            {
              "system": "https://www.icanbwell.com/access",
              "code": "healthsystem1",
              "id": "21ef6cd5-667d-53e9-a787-f6fc10847183"
            },
            {
              "system": "https://www.icanbwell.com/vendor",
              "code": "B",
              "id": "675ab9a9-9fb6-5a48-8406-dce8c95a100b"
            },
            {
              "system": "https://www.icanbwell.com/access",
              "code": "B",
              "id": "073d5d2a-f3b8-5458-a152-5746f24b5488"
            },
            {
              "code": "healthsystem1",
              "system": "https://www.icanbwell.com/sourceAssigningAuthority",
              "id": "e4a94e06-a98b-5f89-8724-d2a8cc5bfeef"
            }
          ]
        },
        "subject": {
          "extension": [
            {
              "id": "sourceId",
              "url": "https://www.icanbwell.com/sourceId",
              "valueString": "Patient/patient1"
            },
            {
              "id": "uuid",
              "url": "https://www.icanbwell.com/uuid",
              "valueString": "Patient/24a5930e-11b4-5525-b482-669174917044"
            },
            {
              "id": "sourceAssigningAuthority",
              "url": "https://www.icanbwell.com/sourceAssigningAuthority",
              "valueString": "healthsystem1"
            }
          ],
          "reference": "Patient/patient1"
        },
        "recorder": {
          "extension": [
            {
              "id": "sourceId",
              "url": "https://www.icanbwell.com/sourceId",
              "valueString": "Practitioner/aa8a8ff8-af25-5878-8cf3-bc74227d44dd"
            },
            {
              "id": "uuid",
              "url": "https://www.icanbwell.com/uuid",
              "valueString": "Practitioner/aa8a8ff8-af25-5878-8cf3-bc74227d44dd"
            },
            {
              "id": "sourceAssigningAuthority",
              "url": "https://www.icanbwell.com/sourceAssigningAuthority",
              "valueString": "healthsystem1"
            }
          ],
          "reference": "Practitioner/aa8a8ff8-af25-5878-8cf3-bc74227d44dd"
        }
      }
    },
    {
      "id": "733797173",
      "resource": {
        "active": true,
        "address": [
          {
            "city": "Perry Hall",
            "line": [
              "5009 Honeygo Center Drive",
              "Suite 216"
            ],
            "postalCode": "21128",
            "state": "MD"
          }
        ],
        "alias": [
          "Client Medical Group Derm at Honeygo"
        ],
        "contact": [
          {
            "purpose": {
              "coding": [
                {
                  "id": "83763aef-2839-5dcb-bb58-f09a287be950",
                  "code": "Central Scheduling",
                  "system": "ClientHealth.org"
                }
              ]
            },
            "telecom": [
              {
                "system": "phone",
                "use": "work"
              }
            ]
          }
        ],
        "extension": [
          {
            "valueDecimal": -76.61668
          },
          {
            "valueDecimal": 39.32792
          }
        ],
        "id": "733797173",
        "identifier": [
          {
            "system": "bwell",
            "use": "usual",
            "value": "-733797173"
          },
          {
            "id": "sourceId",
            "system": "https://www.icanbwell.com/sourceId",
            "value": "733797173"
          },
          {
            "id": "uuid",
            "system": "https://www.icanbwell.com/uuid",
            "value": "d187d5ce-f842-5e13-a4db-961d8e728ebc"
          }
        ],
        "meta": {
          "security": [
            {
              "code": "client",
              "system": "https://www.icanbwell.com/access",
              "id": "21b6850a-a1fb-5de3-8f69-7962d5394390"
            },
            {
              "code": "bwell",
              "system": "https://www.icanbwell.com/owner",
              "id": "70ae40c6-f2bd-54a0-aa66-656be4cce72b"
            },
            {
              "code": "bwell",
              "system": "https://www.icanbwell.com/sourceAssigningAuthority",
              "id": "33ced3c5-0807-582a-b03a-df7d6e95a41c"
            }
          ],
          "source": "https://www.foo.com",
          "versionId": "1"
        },
        "name": "Client Medical Group Dermatology at Honeygo",
        "partOf": {
          "extension": [
            {
              "id": "sourceId",
              "url": "https://www.icanbwell.com/sourceId",
              "valueString": "Organization/7712bd08-fd99-561d-9324-d2fcd41fb009"
            },
            {
              "id": "uuid",
              "url": "https://www.icanbwell.com/uuid",
              "valueString": "Organization/7712bd08-fd99-561d-9324-d2fcd41fb009"
            },
            {
              "id": "sourceAssigningAuthority",
              "url": "https://www.icanbwell.com/sourceAssigningAuthority",
              "valueString": "bwell"
            }
          ],
          "reference": "Organization/7712bd08-fd99-561d-9324-d2fcd41fb009",
          "display": "Client Medical Group",
          "type": "Organization"
        },
        "resourceType": "Organization",
        "telecom": [
          {
            "system": "phone",
            "value": "(410) 256-5858"
          },
          {
            "system": "fax",
            "value": "(866) 733-0434"
          }
        ],
        "type": [
          {
            "coding": [
              {
                "id": "b01785b7-5551-54fe-9805-ea3c1253d22f",
                "code": "prov",
                "display": "Healthcare Provider",
                "system": "http://terminology.hl7.org/CodeSystem/organization-type"
              }
            ],
            "text": "Healthcare Organization"
          },
          {
            "coding": [
              {
                "id": "b01785b7-5551-54fe-9805-ea3c1253d22f",
                "code": "prov",
                "display": "Emergency Room",
                "system": "http://terminology.hl7.org/CodeSystem/organization-type"
              }
            ],
            "text": "ER Indicator"
          }
        ]
      }
    },
    {
      "id": "medication-prednisolone",
      "resource": {
        "code": {
          "coding": [
            {
              "id": "691e9fc2-5e29-586c-894a-f1087b8c410f",
              "code": "135615",
              "system": "urn:oid:2.16.840.1.113883.6.253"
            },
            {
              "id": "ac0558be-374e-5668-8c03-83a02425e99e",
              "code": "61100020102020",
              "system": "urn:oid:2.16.840.1.113883.6.68"
            },
            {
              "id": "90a547b0-ed8a-5611-a5c9-987d51260b2d",
              "code": "59073",
              "system": "urn:oid:2.16.840.1.113883.6.162"
            },
            {
              "id": "a1d98bab-13b4-534c-bb65-2615980b8cc6",
              "code": "3287",
              "system": "http://www.nlm.nih.gov/research/umls/rxnorm"
            },
            {
              "id": "a2699bd2-aabd-5e2c-8174-947985eec01a",
              "code": "3288",
              "system": "http://www.nlm.nih.gov/research/umls/rxnorm"
            },
            {
              "id": "ebc71762-9211-5cdc-99d5-86a4137297bc",
              "code": "822929",
              "system": "http://www.nlm.nih.gov/research/umls/rxnorm"
            },
            {
              "id": "1df34d87-352a-576e-90e6-94513de1e2f3",
              "code": "884522",
              "system": "http://www.nlm.nih.gov/research/umls/rxnorm"
            }
          ],
          "text": "prednisolone 1 MG/ML [Pediapred]"
        },
        "form": {
          "coding": [
            {
              "id": "fbee3e10-1f81-564f-b1c8-3a6c55007bbf",
              "code": "SOLN",
              "display": "Solution",
              "system": "urn:oid:1.2.840.114350.1.13.283.3.7.4.698288.310"
            }
          ],
          "text": "Solution"
        },
        "id": "medication-prednisolone",
        "identifier": [
          {
            "id": "sourceId",
            "system": "https://www.icanbwell.com/sourceId",
            "value": "medication-prednisolone"
          },
          {
            "id": "uuid",
            "system": "https://www.icanbwell.com/uuid",
            "value": "b0e0113d-23a0-5742-a054-c8afe008010b"
          }
        ],
        "ingredient": [
          {
            "itemCodeableConcept": {
              "coding": [
                {
                  "id": "691e9fc2-5e29-586c-894a-f1087b8c410f",
                  "code": "135615",
                  "system": "urn:oid:2.16.840.1.113883.6.253"
                },
                {
                  "id": "ac0558be-374e-5668-8c03-83a02425e99e",
                  "code": "61100020102020",
                  "system": "urn:oid:2.16.840.1.113883.6.68"
                },
                {
                  "id": "90a547b0-ed8a-5611-a5c9-987d51260b2d",
                  "code": "59073",
                  "system": "urn:oid:2.16.840.1.113883.6.162"
                },
                {
                  "id": "a1d98bab-13b4-534c-bb65-2615980b8cc6",
                  "code": "3287",
                  "system": "http://www.nlm.nih.gov/research/umls/rxnorm"
                },
                {
                  "id": "a2699bd2-aabd-5e2c-8174-947985eec01a",
                  "code": "3288",
                  "system": "http://www.nlm.nih.gov/research/umls/rxnorm"
                },
                {
                  "id": "ebc71762-9211-5cdc-99d5-86a4137297bc",
                  "code": "822929",
                  "system": "http://www.nlm.nih.gov/research/umls/rxnorm"
                },
                {
                  "id": "1df34d87-352a-576e-90e6-94513de1e2f3",
                  "code": "884522",
                  "system": "http://www.nlm.nih.gov/research/umls/rxnorm"
                }
              ],
              "text": "Dextroamphetamine Sulfate 5 MG/5ML Soln oral solution"
            },
            "strength": {
              "denominator": {
                "unit": "MG/5ML",
                "value": 5
              },
              "numerator": {
                "unit": "MG/5ML",
                "value": 5
              }
            }
          }
        ],
        "meta": {
          "security": [
            {
              "code": "my-companyuat",
              "system": "https://www.icanbwell.com/owner",
              "id": "6875cc8d-e2ee-5adb-9ce7-e4a22759d6dd"
            },
            {
              "code": "my-companyuat",
              "system": "https://www.icanbwell.com/access",
              "id": "6b3cd5a7-5f68-50bb-ad5e-14a60f9e594b"
            },
            {
              "code": "my-companyuat",
              "system": "https://www.icanbwell.com/vendor",
              "id": "8c1674a3-f212-53cc-9fc6-40161e294196"
            },
            {
              "code": "my-companyuat",
              "system": "https://www.icanbwell.com/sourceAssigningAuthority",
              "id": "91d5ec27-7d97-5bff-ad11-f72959f469a8"
            }
          ],
          "source": "https://epicfhir.my-company.org/NonProdFHIR/api/FHIR/R4/metadata",
          "versionId": "1"
        },
        "resourceType": "Medication"
      }
    },
    {
      "id": "1679033641",
      "resource": {
        "active": true,
        "communication": [
          {
            "coding": [
              {
                "id": "dbafba35-4de0-5924-a3fb-491aa1b99e6d",
                "code": "en",
                "system": "urn:ietf:bcp:47"
              }
            ]
          }
        ],
        "gender": "unknown",
        "id": "1679033641",
        "identifier": [
          {
            "system": "http://clienthealth.org",
            "type": {
              "coding": [
                {
                  "id": "c43d55b1-820c-598b-94b2-dbec4db44b9e",
                  "code": "PRN",
                  "system": "http://terminology.hl7.org/CodeSystem/v2-0203"
                }
              ]
            },
            "use": "usual",
            "value": "4657"
          },
          {
            "system": "http://hl7.org/fhir/sid/us-npi",
            "type": {
              "coding": [
                {
                  "id": "e6e3086f-d120-5e5e-8744-6af40a836e8c",
                  "code": "NPI",
                  "system": "http://terminology.hl7.org/CodeSystem/v2-0203"
                }
              ]
            },
            "use": "official",
            "value": "1679033641"
          },
          {
            "id": "sourceId",
            "system": "https://www.icanbwell.com/sourceId",
            "value": "1679033641"
          },
          {
            "id": "uuid",
            "system": "https://www.icanbwell.com/uuid",
            "value": "aa8a8ff8-af25-5878-8cf3-bc74227d44dd"
          }
        ],
        "meta": {
          "security": [
            {
              "code": "client",
              "system": "https://www.icanbwell.com/access",
              "id": "21b6850a-a1fb-5de3-8f69-7962d5394390"
            },
            {
              "code": "client",
              "system": "https://www.icanbwell.com/owner",
              "id": "1642e685-6de9-5bdb-89e8-b62ffe4420eb"
            },
            {
              "code": "client",
              "system": "https://www.icanbwell.com/sourceAssigningAuthority",
              "id": "cea955c4-9b2c-5b0d-8b48-acfd40cabb59"
            }
          ],
          "source": "client",
          "versionId": "1"
        },
        "name": [
          {
            "family": "NAJJAR  MD",
            "given": [
              "SAMER S."
            ],
            "text": "SAMER S. NAJJAR  MD",
            "use": "usual"
          },
          {
            "family": "NAJJAR  MD",
            "given": [
              "SAMER S."
            ],
            "text": "NAJJAR  MD, SAMER S.",
            "use": "usual"
          }
        ],
        "qualification": [
          {
            "code": {
              "coding": [
                {
                  "id": "c80483dd-19aa-5e37-a22c-9ca194885571",
                  "code": "MD",
                  "system": "http://terminology.hl7.org/ValueSet/v2-2.7-030"
                }
              ]
            }
          },
          {
            "code": {
              "coding": [
                {
                  "id": "c80483dd-19aa-5e37-a22c-9ca194885571",
                  "code": "MD",
                  "system": "http://terminology.hl7.org/ValueSet/v2-2.7-030"
                }
              ]
            },
            "issuer": {
              "extension": [
                {
                  "id": "sourceId",
                  "url": "https://www.icanbwell.com/sourceId",
                  "valueString": "Organization/d187d5ce-f842-5e13-a4db-961d8e728ebc"
                },
                {
                  "id": "uuid",
                  "url": "https://www.icanbwell.com/uuid",
                  "valueString": "Organization/d187d5ce-f842-5e13-a4db-961d8e728ebc"
                },
                {
                  "id": "sourceAssigningAuthority",
                  "url": "https://www.icanbwell.com/sourceAssigningAuthority",
                  "valueString": "client"
                }
              ],
              "reference": "Organization/d187d5ce-f842-5e13-a4db-961d8e728ebc"
            },
            "period": {
              "end": "2021-12-11",
              "start": "1960-01-01"
            }
          }
        ],
        "resourceType": "Practitioner",
        "telecom": [
          {
            "system": "email",
            "use": "work",
            "value": "foo@foo.com"
          }
        ]
      }
    },
    {
      "id": "7337971735",
      "resource": {
        "active": true,
        "address": [
          {
            "city": "Perry Hall",
            "line": [
              "5009 Honeygo Center Drive",
              "Suite 216"
            ],
            "postalCode": "21128",
            "state": "MD"
          }
        ],
        "alias": [
          "Client Medical Group Derm at Honeygo"
        ],
        "contact": [
          {
            "purpose": {
              "coding": [
                {
                  "id": "83763aef-2839-5dcb-bb58-f09a287be950",
                  "code": "Central Scheduling",
                  "system": "ClientHealth.org"
                }
              ]
            },
            "telecom": [
              {
                "system": "phone",
                "use": "work"
              }
            ]
          }
        ],
        "extension": [
          {
            "valueDecimal": -76.61668
          },
          {
            "valueDecimal": 39.32792
          }
        ],
        "id": "7337971735",
        "identifier": [
          {
            "system": "bwell",
            "use": "usual",
            "value": "-7337971735"
          },
          {
            "id": "sourceId",
            "system": "https://www.icanbwell.com/sourceId",
            "value": "7337971735"
          },
          {
            "id": "uuid",
            "system": "https://www.icanbwell.com/uuid",
            "value": "7712bd08-fd99-561d-9324-d2fcd41fb009"
          }
        ],
        "meta": {
          "security": [
            {
              "code": "client",
              "system": "https://www.icanbwell.com/access",
              "id": "21b6850a-a1fb-5de3-8f69-7962d5394390"
            },
            {
              "code": "bwell",
              "system": "https://www.icanbwell.com/owner",
              "id": "70ae40c6-f2bd-54a0-aa66-656be4cce72b"
            },
            {
              "code": "bwell",
              "system": "https://www.icanbwell.com/sourceAssigningAuthority",
              "id": "33ced3c5-0807-582a-b03a-df7d6e95a41c"
            }
          ],
          "source": "https://www.foo.com",
          "versionId": "1"
        },
        "name": "Client Medical Group Dermatology at Honeygo",
        "resourceType": "Organization",
        "telecom": [
          {
            "system": "phone",
            "value": "(410) 256-5858"
          },
          {
            "system": "fax",
            "value": "(866) 733-0434"
          }
        ],
        "type": [
          {
            "coding": [
              {
                "id": "b01785b7-5551-54fe-9805-ea3c1253d22f",
                "code": "prov",
                "display": "Healthcare Provider",
                "system": "http://terminology.hl7.org/CodeSystem/organization-type"
              }
            ],
            "text": "Healthcare Organization"
          },
          {
            "coding": [
              {
                "id": "b01785b7-5551-54fe-9805-ea3c1253d22f",
                "code": "prov",
                "display": "Emergency Room",
                "system": "http://terminology.hl7.org/CodeSystem/organization-type"
              }
            ],
            "text": "ER Indicator"
          }
        ]
      }
    },
    {
      "id": "linkage1",
      "resource": {
        "id": "linkage1",
        "item": [
          {
            "resource": {
              "extension": [
                {
                  "id": "sourceId",
                  "url": "https://www.icanbwell.com/sourceId",
                  "valueString": "Patient/patient1"
                },
                {
                  "id": "uuid",
                  "url": "https://www.icanbwell.com/uuid",
                  "valueString": "Patient/24a5930e-11b4-5525-b482-669174917044"
                },
                {
                  "id": "sourceAssigningAuthority",
                  "url": "https://www.icanbwell.com/sourceAssigningAuthority",
                  "valueString": "healthsystem1"
                }
              ],
              "reference": "Patient/patient1"
            },
            "type": "source"
          }
        ],
        "meta": {
          "security": [
            {
              "code": "healthsystem1",
              "system": "https://www.icanbwell.com/owner",
              "id": "6e1a1bd3-9764-55e3-93a3-4cc9f74b3f43"
            },
            {
              "code": "healthsystem1",
              "system": "https://www.icanbwell.com/access",
              "id": "21ef6cd5-667d-53e9-a787-f6fc10847183"
            },
            {
              "code": "healthsystem1",
              "system": "https://www.icanbwell.com/sourceAssigningAuthority",
              "id": "e4a94e06-a98b-5f89-8724-d2a8cc5bfeef"
            }
          ],
          "source": "https://www.icanbwell.com",
          "versionId": "1"
        },
        "resourceType": "Linkage"
      }
    },
    {
      "id": "paymentNotice1",
      "resource": {
        "amount": {
          "currency": "USD",
          "value": 12500
        },
        "created": "2014-08-15",
        "id": "paymentNotice1",
        "identifier": [
          {
            "id": "sourceId",
            "system": "https://www.icanbwell.com/sourceId",
            "value": "paymentNotice1"
          },
          {
            "id": "uuid",
            "system": "https://www.icanbwell.com/uuid",
            "value": "c0f015df-96a2-565f-aa33-e8603472d2f0"
          }
        ],
        "meta": {
          "security": [
            {
              "code": "healthsystem1",
              "system": "https://www.icanbwell.com/owner",
              "id": "6e1a1bd3-9764-55e3-93a3-4cc9f74b3f43"
            },
            {
              "code": "healthsystem1",
              "system": "https://www.icanbwell.com/access",
              "id": "21ef6cd5-667d-53e9-a787-f6fc10847183"
            },
            {
              "code": "healthsystem1",
              "system": "https://www.icanbwell.com/sourceAssigningAuthority",
              "id": "e4a94e06-a98b-5f89-8724-d2a8cc5bfeef"
            }
          ],
          "source": "https://www.icanbwell.com",
          "versionId": "1"
        },
        "payment": {
          "extension": [
            {
              "id": "sourceId",
              "url": "https://www.icanbwell.com/sourceId",
              "valueString": "PaymentReconciliation/ER2500"
            },
            {
              "id": "uuid",
              "url": "https://www.icanbwell.com/uuid",
              "valueString": "PaymentReconciliation/d45e43c6-170f-52e1-a157-692ee5c9704b"
            },
            {
              "id": "sourceAssigningAuthority",
              "url": "https://www.icanbwell.com/sourceAssigningAuthority",
              "valueString": "healthsystem1"
            }
          ],
          "reference": "PaymentReconciliation/ER2500"
        },
        "recipient": {
          "identifier": {
            "system": "http://regulators.gov",
            "value": "AB123"
          }
        },
        "request": {
          "extension": [
            {
              "id": "sourceId",
              "url": "https://www.icanbwell.com/sourceId",
              "valueString": "Patient/patient1"
            },
            {
              "id": "uuid",
              "url": "https://www.icanbwell.com/uuid",
              "valueString": "Patient/24a5930e-11b4-5525-b482-669174917044"
            },
            {
              "id": "sourceAssigningAuthority",
              "url": "https://www.icanbwell.com/sourceAssigningAuthority",
              "valueString": "healthsystem1"
            }
          ],
          "reference": "Patient/patient1"
        },
        "resourceType": "PaymentNotice",
        "status": "active"
      }
    },
    {
      "id": "doc-ref-1",
      "resource": {
        "resourceType": "DocumentReference",
        "id": "doc-ref-1",
        "meta": {
          "versionId": "1",
          "lastUpdated": "2025-04-07T08:46:41.880Z",
          "source": "https://www.icanbwell.com",
          "security": [
            {
              "id": "21ef6cd5-667d-53e9-a787-f6fc10847183",
              "system": "https://www.icanbwell.com/access",
              "code": "healthsystem1"
            },
            {
              "id": "6e1a1bd3-9764-55e3-93a3-4cc9f74b3f43",
              "system": "https://www.icanbwell.com/owner",
              "code": "healthsystem1"
            },
            {
              "id": "e4a94e06-a98b-5f89-8724-d2a8cc5bfeef",
              "system": "https://www.icanbwell.com/sourceAssigningAuthority",
              "code": "healthsystem1"
            }
          ]
        },
        "identifier": [
          {
            "id": "sourceId",
            "system": "https://www.icanbwell.com/sourceId",
            "value": "doc-ref-1"
          },
          {
            "id": "uuid",
            "system": "https://www.icanbwell.com/uuid",
            "value": "94528605-a9a1-50e6-a0fe-d718d529e660"
          }
        ],
        "status": "current",
        "docStatus": "final",
        "category": [
          {
            "coding": [
              {
                "id": "12849cb7-c449-52cd-b160-1c24620b1ac2",
                "system": "https://fhir.icanbwell.com/4_0_0/CodeSystem/document-reference-category",
                "code": "PhoneVerified",
                "display": "Verified Phone"
              }
            ]
          }
        ],
        "subject": {
          "extension": [
            {
              "id": "sourceId",
              "url": "https://www.icanbwell.com/sourceId",
              "valueString": "Patient/patient1"
            },
            {
              "id": "uuid",
              "url": "https://www.icanbwell.com/uuid",
              "valueString": "Patient/24a5930e-11b4-5525-b482-669174917044"
            },
            {
              "id": "sourceAssigningAuthority",
              "url": "https://www.icanbwell.com/sourceAssigningAuthority",
              "valueString": "healthsystem1"
            }
          ],
          "reference": "Patient/patient1"
        },
        "date": "2022-12-17T09:44:58.033Z",
        "description": "PhoneVerified identity verification document",
        "securityLabel": [
          {
            "coding": [
              {
                "id": "b08e9826-eca4-5380-8f03-6de2f5253d4a",
                "system": "http://terminology.hl7.org/CodeSystem/v3-ActCode",
                "code": "DEMO",
                "display": "all demographic information sensitivity"
              }
            ]
          }
        ],
        "content": [
          {
            "attachment": {
              "contentType": "text/html",
              "url": "Binary/binary1"
            }
          }
        ]
      }
    },
    {
      "id": "doc-ref-2",
      "resource": {
        "resourceType": "DocumentReference",
        "id": "doc-ref-2",
        "meta": {
          "versionId": "1",
          "lastUpdated": "2025-04-07T08:46:41.961Z",
          "source": "https://www.icanbwell.com",
          "security": [
            {
              "id": "21ef6cd5-667d-53e9-a787-f6fc10847183",
              "system": "https://www.icanbwell.com/access",
              "code": "healthsystem1"
            },
            {
              "id": "6e1a1bd3-9764-55e3-93a3-4cc9f74b3f43",
              "system": "https://www.icanbwell.com/owner",
              "code": "healthsystem1"
            },
            {
              "id": "e4a94e06-a98b-5f89-8724-d2a8cc5bfeef",
              "system": "https://www.icanbwell.com/sourceAssigningAuthority",
              "code": "healthsystem1"
            }
          ]
        },
        "identifier": [
          {
            "id": "sourceId",
            "system": "https://www.icanbwell.com/sourceId",
            "value": "doc-ref-2"
          },
          {
            "id": "uuid",
            "system": "https://www.icanbwell.com/uuid",
            "value": "d7fa3119-0932-58ab-bf29-2bbed116342d"
          }
        ],
        "status": "current",
        "docStatus": "final",
        "category": [
          {
            "coding": [
              {
                "id": "12849cb7-c449-52cd-b160-1c24620b1ac2",
                "system": "https://fhir.icanbwell.com/4_0_0/CodeSystem/document-reference-category",
                "code": "PhoneVerified",
                "display": "Verified Phone"
              }
            ]
          }
        ],
        "subject": {
          "extension": [
            {
              "id": "sourceId",
              "url": "https://www.icanbwell.com/sourceId",
              "valueString": "Patient/patient1"
            },
            {
              "id": "uuid",
              "url": "https://www.icanbwell.com/uuid",
              "valueString": "Patient/24a5930e-11b4-5525-b482-669174917044"
            },
            {
              "id": "sourceAssigningAuthority",
              "url": "https://www.icanbwell.com/sourceAssigningAuthority",
              "valueString": "healthsystem1"
            }
          ],
          "reference": "Patient/patient1"
        },
        "date": "2022-12-17T09:44:58.033Z",
        "description": "PhoneVerified identity verification document",
        "securityLabel": [
          {
            "coding": [
              {
                "id": "b08e9826-eca4-5380-8f03-6de2f5253d4a",
                "system": "http://terminology.hl7.org/CodeSystem/v3-ActCode",
                "code": "DEMO",
                "display": "all demographic information sensitivity"
              }
            ]
          }
        ],
        "content": [
          {
            "attachment": {
              "contentType": "text/html",
              "url": "Binary/binary2"
            }
          }
        ]
      }
    },
    {
      "id": "binary2",
      "resource": {
        "resourceType": "Binary",
        "id": "binary2",
        "meta": {
          "versionId": "1",
          "lastUpdated": "2025-04-07T08:46:41.721Z",
          "source": "https://connect.medlineplus.gov/service",
          "security": [
            {
              "id": "34cb1d73-f93b-54c8-89a1-c0a6f8aa9acd",
              "system": "https://www.icanbwell.com/owner",
              "code": "client1"
            },
            {
              "id": "d5ff7087-77ef-546b-8b12-05c74cec6b87",
              "system": "https://www.icanbwell.com/access",
              "code": "client1"
            },
            {
              "id": "171f7c10-fa66-5272-91c5-6353567641e4",
              "system": "https://www.icanbwell.com/sourceAssigningAuthority",
              "code": "client1"
            }
          ]
        },
        "contentType": "text/html",
        "data": ""
      }
    },
    {
      "id": "binary1",
      "resource": {
        "resourceType": "Binary",
        "id": "binary1",
        "meta": {
          "versionId": "1",
          "lastUpdated": "2025-04-07T08:46:41.634Z",
          "source": "https://connect.medlineplus.gov/service",
          "security": [
            {
              "id": "34cb1d73-f93b-54c8-89a1-c0a6f8aa9acd",
              "system": "https://www.icanbwell.com/owner",
              "code": "client1"
            },
            {
              "id": "d5ff7087-77ef-546b-8b12-05c74cec6b87",
              "system": "https://www.icanbwell.com/access",
              "code": "client1"
            },
            {
              "id": "171f7c10-fa66-5272-91c5-6353567641e4",
              "system": "https://www.icanbwell.com/sourceAssigningAuthority",
              "code": "client1"
            }
          ]
        },
        "contentType": "text/html",
        "data": ""
      }
    },
    {
      "id": "9c1e9c7f-959b-4a53-892a-2760cfd760bf",
      "resource": {
        "address": {
          "use": "work",
          "type": "physical",
          "line": [
            "1940 Elmer J Bissell Rd"
          ],
          "city": "Birmingham",
          "state": "AL",
          "postalCode": "35243"
        },
        "id": "9c1e9c7f-959b-4a53-892a-2760cfd760bf",
        "identifier": [
          {
            "id": "sourceId",
            "system": "https://www.icanbwell.com/sourceId",
            "value": "9c1e9c7f-959b-4a53-892a-2760cfd760bf"
          },
          {
            "id": "uuid",
            "system": "https://www.icanbwell.com/uuid",
            "value": "9c1e9c7f-959b-4a53-892a-2760cfd760bf"
          }
        ],
        "managingOrganization": {
          "extension": [
            {
              "id": "sourceId",
              "url": "https://www.icanbwell.com/sourceId",
              "valueString": "Organization/d187d5ce-f842-5e13-a4db-961d8e728ebc"
            },
            {
              "id": "uuid",
              "url": "https://www.icanbwell.com/uuid",
              "valueString": "Organization/d187d5ce-f842-5e13-a4db-961d8e728ebc"
            },
            {
              "id": "sourceAssigningAuthority",
              "url": "https://www.icanbwell.com/sourceAssigningAuthority",
              "valueString": "bwell"
            }
          ],
          "reference": "Organization/d187d5ce-f842-5e13-a4db-961d8e728ebc"
        },
        "meta": {
          "versionId": "1",
          "lastUpdated": "2025-04-16T16:17:04.774Z",
          "source": "https://www.foo.com",
          "security": [
            {
              "id": "21b6850a-a1fb-5de3-8f69-7962d5394390",
              "system": "https://www.icanbwell.com/access",
              "code": "client"
            },
            {
              "id": "70ae40c6-f2bd-54a0-aa66-656be4cce72b",
              "system": "https://www.icanbwell.com/owner",
              "code": "bwell"
            },
            {
              "id": "33ced3c5-0807-582a-b03a-df7d6e95a41c",
              "system": "https://www.icanbwell.com/sourceAssigningAuthority",
              "code": "bwell"
            }
          ]
        },
        "name": "Elise D. Agostinelli, OD",
        "position": {
          "longitude": -86.76238,
          "latitude": 33.41329
        },
        "resourceType": "Location",
        "status": "active",
        "telecom": [
          {
            "system": "phone",
            "value": "2056384938",
            "use": "work",
            "rank": 1
          },
          {
            "system": "fax",
            "value": "2056385899",
            "use": "work",
            "rank": 2
          }
        ]
      }
    },
    {
      "id": "135bd32b-f8fe-47c0-98aa-ea6f7d15af6a",
      "resource": {
        "active": true,
        "communication": [
          {
            "coding": [
              {
                "id": "dbafba35-4de0-5924-a3fb-491aa1b99e6d",
                "system": "urn:ietf:bcp:47",
                "code": "en"
              }
            ]
          }
        ],
        "gender": "unknown",
        "id": "135bd32b-f8fe-47c0-98aa-ea6f7d15af6a",
        "identifier": [
          {
            "id": "sourceId",
            "system": "https://www.icanbwell.com/sourceId",
            "value": "135bd32b-f8fe-47c0-98aa-ea6f7d15af6a"
          },
          {
            "id": "uuid",
            "system": "https://www.icanbwell.com/uuid",
            "value": "135bd32b-f8fe-47c0-98aa-ea6f7d15af6a"
          }
        ],
        "meta": {
          "versionId": "1",
          "lastUpdated": "2025-04-16T16:17:02.903Z",
          "source": "client",
          "security": [
            {
              "id": "21b6850a-a1fb-5de3-8f69-7962d5394390",
              "system": "https://www.icanbwell.com/access",
              "code": "client"
            },
            {
              "id": "1642e685-6de9-5bdb-89e8-b62ffe4420eb",
              "system": "https://www.icanbwell.com/owner",
              "code": "client"
            },
            {
              "id": "cea955c4-9b2c-5b0d-8b48-acfd40cabb59",
              "system": "https://www.icanbwell.com/sourceAssigningAuthority",
              "code": "client"
            }
          ]
        },
        "name": [
          {
            "use": "usual",
            "text": "SAMER S. NAJJAR  MD",
            "family": "NAJJAR  MD",
            "given": [
              "SAMER S."
            ]
          },
          {
            "use": "usual",
            "text": "NAJJAR  MD, SAMER S.",
            "family": "NAJJAR  MD",
            "given": [
              "SAMER S."
            ]
          }
        ],
        "qualification": [
          {
            "code": {
              "coding": [
                {
                  "id": "c80483dd-19aa-5e37-a22c-9ca194885571",
                  "system": "http://terminology.hl7.org/ValueSet/v2-2.7-030",
                  "code": "MD"
                }
              ]
            }
          },
          {
            "code": {
              "coding": [
                {
                  "id": "c80483dd-19aa-5e37-a22c-9ca194885571",
                  "system": "http://terminology.hl7.org/ValueSet/v2-2.7-030",
                  "code": "MD"
                }
              ]
            },
            "period": {
              "start": "1960-01-01",
              "end": "2021-12-11"
            },
            "issuer": {
              "extension": [
                {
                  "id": "sourceId",
                  "url": "https://www.icanbwell.com/sourceId",
                  "valueString": "Organization/d187d5ce-f842-5e13-a4db-961d8e728ebc"
                },
                {
                  "id": "uuid",
                  "url": "https://www.icanbwell.com/uuid",
                  "valueString": "Organization/d187d5ce-f842-5e13-a4db-961d8e728ebc"
                },
                {
                  "id": "sourceAssigningAuthority",
                  "url": "https://www.icanbwell.com/sourceAssigningAuthority",
                  "valueString": "client"
                }
              ],
              "reference": "Organization/d187d5ce-f842-5e13-a4db-961d8e728ebc"
            }
          }
        ],
        "resourceType": "Practitioner",
        "telecom": [
          {
            "system": "email",
            "value": "foo@foo.com",
            "use": "work"
          }
        ]
      }
    },
    {
      "id": "a699b172-996a-48f2-9f52-ab3e34c88d28",
      "resource": {
        "active": true,
        "communication": [
          {
            "coding": [
              {
                "id": "dbafba35-4de0-5924-a3fb-491aa1b99e6d",
                "system": "urn:ietf:bcp:47",
                "code": "en"
              }
            ]
          }
        ],
        "gender": "unknown",
        "id": "a699b172-996a-48f2-9f52-ab3e34c88d28",
        "identifier": [
          {
            "id": "sourceId",
            "system": "https://www.icanbwell.com/sourceId",
            "value": "a699b172-996a-48f2-9f52-ab3e34c88d28"
          },
          {
            "id": "uuid",
            "system": "https://www.icanbwell.com/uuid",
            "value": "a699b172-996a-48f2-9f52-ab3e34c88d28"
          }
        ],
        "meta": {
          "versionId": "1",
          "lastUpdated": "2025-04-16T16:17:02.903Z",
          "source": "client",
          "security": [
            {
              "id": "21b6850a-a1fb-5de3-8f69-7962d5394390",
              "system": "https://www.icanbwell.com/access",
              "code": "client"
            },
            {
              "id": "1642e685-6de9-5bdb-89e8-b62ffe4420eb",
              "system": "https://www.icanbwell.com/owner",
              "code": "client"
            },
            {
              "id": "cea955c4-9b2c-5b0d-8b48-acfd40cabb59",
              "system": "https://www.icanbwell.com/sourceAssigningAuthority",
              "code": "client"
            }
          ]
        },
        "name": [
          {
            "use": "usual",
            "text": "SAMER S. NAJJAR  MD",
            "family": "NAJJAR  MD",
            "given": [
              "SAMER S."
            ]
          },
          {
            "use": "usual",
            "text": "NAJJAR  MD, SAMER S.",
            "family": "NAJJAR  MD",
            "given": [
              "SAMER S."
            ]
          }
        ],
        "qualification": [
          {
            "code": {
              "coding": [
                {
                  "id": "c80483dd-19aa-5e37-a22c-9ca194885571",
                  "system": "http://terminology.hl7.org/ValueSet/v2-2.7-030",
                  "code": "MD"
                }
              ]
            }
          },
          {
            "code": {
              "coding": [
                {
                  "id": "c80483dd-19aa-5e37-a22c-9ca194885571",
                  "system": "http://terminology.hl7.org/ValueSet/v2-2.7-030",
                  "code": "MD"
                }
              ]
            },
            "period": {
              "start": "1960-01-01",
              "end": "2021-12-11"
            },
            "issuer": {
              "extension": [
                {
                  "id": "sourceId",
                  "url": "https://www.icanbwell.com/sourceId",
                  "valueString": "Organization/d187d5ce-f842-5e13-a4db-961d8e728ebc"
                },
                {
                  "id": "uuid",
                  "url": "https://www.icanbwell.com/uuid",
                  "valueString": "Organization/d187d5ce-f842-5e13-a4db-961d8e728ebc"
                },
                {
                  "id": "sourceAssigningAuthority",
                  "url": "https://www.icanbwell.com/sourceAssigningAuthority",
                  "valueString": "client"
                }
              ],
              "reference": "Organization/d187d5ce-f842-5e13-a4db-961d8e728ebc"
            }
          }
        ],
        "resourceType": "Practitioner",
        "telecom": [
          {
            "system": "email",
            "value": "foo@foo.com",
            "use": "work"
          }
        ]
      }
    },
    {
      "id": "8143ac7d-ad11-4349-9a3f-da93faae0eae",
      "resource": {
        "active": true,
        "id": "8143ac7d-ad11-4349-9a3f-da93faae0eae",
        "identifier": [
          {
            "id": "sourceId",
            "system": "https://www.icanbwell.com/sourceId",
            "value": "8143ac7d-ad11-4349-9a3f-da93faae0eae"
          },
          {
            "id": "uuid",
            "system": "https://www.icanbwell.com/uuid",
            "value": "8143ac7d-ad11-4349-9a3f-da93faae0eae"
          }
        ],
        "location": [
          {
            "extension": [
              {
                "id": "sourceId",
                "url": "https://www.icanbwell.com/sourceId",
                "valueString": "Location/9c1e9c7f-959b-4a53-892a-2760cfd760bf"
              },
              {
                "id": "uuid",
                "url": "https://www.icanbwell.com/uuid",
                "valueString": "Location/9c1e9c7f-959b-4a53-892a-2760cfd760bf"
              },
              {
                "id": "sourceAssigningAuthority",
                "url": "https://www.icanbwell.com/sourceAssigningAuthority",
                "valueString": "client"
              }
            ],
            "reference": "Location/9c1e9c7f-959b-4a53-892a-2760cfd760bf",
            "display": "Primary Care Clinic"
          }
        ],
        "meta": {
          "versionId": "1",
          "lastUpdated": "2025-04-16T16:17:05.119Z",
          "source": "client",
          "security": [
            {
              "id": "21b6850a-a1fb-5de3-8f69-7962d5394390",
              "system": "https://www.icanbwell.com/access",
              "code": "client"
            },
            {
              "id": "1642e685-6de9-5bdb-89e8-b62ffe4420eb",
              "system": "https://www.icanbwell.com/owner",
              "code": "client"
            },
            {
              "id": "cea955c4-9b2c-5b0d-8b48-acfd40cabb59",
              "system": "https://www.icanbwell.com/sourceAssigningAuthority",
              "code": "client"
            }
          ]
        },
        "organization": {
          "extension": [
            {
              "id": "sourceId",
              "url": "https://www.icanbwell.com/sourceId",
              "valueString": "Organization/d187d5ce-f842-5e13-a4db-961d8e728ebc"
            },
            {
              "id": "uuid",
              "url": "https://www.icanbwell.com/uuid",
              "valueString": "Organization/d187d5ce-f842-5e13-a4db-961d8e728ebc"
            },
            {
              "id": "sourceAssigningAuthority",
              "url": "https://www.icanbwell.com/sourceAssigningAuthority",
              "valueString": "client"
            }
          ],
          "reference": "Organization/d187d5ce-f842-5e13-a4db-961d8e728ebc",
          "display": "Primary Care Medical Group"
        },
        "practitioner": {
          "extension": [
            {
              "id": "sourceId",
              "url": "https://www.icanbwell.com/sourceId",
              "valueString": "Practitioner/a699b172-996a-48f2-9f52-ab3e34c88d28"
            },
            {
              "id": "uuid",
              "url": "https://www.icanbwell.com/uuid",
              "valueString": "Practitioner/a699b172-996a-48f2-9f52-ab3e34c88d28"
            },
            {
              "id": "sourceAssigningAuthority",
              "url": "https://www.icanbwell.com/sourceAssigningAuthority",
              "valueString": "client"
            }
          ],
          "reference": "Practitioner/a699b172-996a-48f2-9f52-ab3e34c88d28",
          "display": "Dr. Susan Jane"
        },
        "resourceType": "PractitionerRole",
        "specialty": [
          {
            "coding": [
              {
                "id": "898bb050-d8e5-50e3-9660-a44ef57d9782",
                "system": "http://snomed.info/sct",
                "code": "419772000",
                "display": "Family practice"
              }
            ],
            "text": "Family Medicine"
          }
        ]
      }
    },
    {
      "id": "9ec009e4-28f7-4958-86da-256fe0f67c75",
      "resource": {
        "active": true,
        "id": "9ec009e4-28f7-4958-86da-256fe0f67c75",
        "identifier": [
          {
            "id": "sourceId",
            "system": "https://www.icanbwell.com/sourceId",
            "value": "9ec009e4-28f7-4958-86da-256fe0f67c75"
          },
          {
            "id": "uuid",
            "system": "https://www.icanbwell.com/uuid",
            "value": "9ec009e4-28f7-4958-86da-256fe0f67c75"
          }
        ],
        "location": [
          {
            "extension": [
              {
                "id": "sourceId",
                "url": "https://www.icanbwell.com/sourceId",
                "valueString": "Location/9c1e9c7f-959b-4a53-892a-2760cfd760bf"
              },
              {
                "id": "uuid",
                "url": "https://www.icanbwell.com/uuid",
                "valueString": "Location/9c1e9c7f-959b-4a53-892a-2760cfd760bf"
              },
              {
                "id": "sourceAssigningAuthority",
                "url": "https://www.icanbwell.com/sourceAssigningAuthority",
                "valueString": "client"
              }
            ],
            "reference": "Location/9c1e9c7f-959b-4a53-892a-2760cfd760bf",
            "display": "Primary Care Clinic"
          }
        ],
        "meta": {
          "versionId": "1",
          "lastUpdated": "2025-04-16T16:17:05.120Z",
          "source": "client",
          "security": [
            {
              "id": "21b6850a-a1fb-5de3-8f69-7962d5394390",
              "system": "https://www.icanbwell.com/access",
              "code": "client"
            },
            {
              "id": "1642e685-6de9-5bdb-89e8-b62ffe4420eb",
              "system": "https://www.icanbwell.com/owner",
              "code": "client"
            },
            {
              "id": "cea955c4-9b2c-5b0d-8b48-acfd40cabb59",
              "system": "https://www.icanbwell.com/sourceAssigningAuthority",
              "code": "client"
            }
          ]
        },
        "organization": {
          "extension": [
            {
              "id": "sourceId",
              "url": "https://www.icanbwell.com/sourceId",
              "valueString": "Organization/d187d5ce-f842-5e13-a4db-961d8e728ebc"
            },
            {
              "id": "uuid",
              "url": "https://www.icanbwell.com/uuid",
              "valueString": "Organization/d187d5ce-f842-5e13-a4db-961d8e728ebc"
            },
            {
              "id": "sourceAssigningAuthority",
              "url": "https://www.icanbwell.com/sourceAssigningAuthority",
              "valueString": "client"
            }
          ],
          "reference": "Organization/d187d5ce-f842-5e13-a4db-961d8e728ebc",
          "display": "Primary Care Medical Group"
        },
        "practitioner": {
          "extension": [
            {
              "id": "sourceId",
              "url": "https://www.icanbwell.com/sourceId",
              "valueString": "Practitioner/135bd32b-f8fe-47c0-98aa-ea6f7d15af6a"
            },
            {
              "id": "uuid",
              "url": "https://www.icanbwell.com/uuid",
              "valueString": "Practitioner/135bd32b-f8fe-47c0-98aa-ea6f7d15af6a"
            },
            {
              "id": "sourceAssigningAuthority",
              "url": "https://www.icanbwell.com/sourceAssigningAuthority",
              "valueString": "client"
            }
          ],
          "reference": "Practitioner/135bd32b-f8fe-47c0-98aa-ea6f7d15af6a",
          "display": "Dr. James Smith"
        },
        "resourceType": "PractitionerRole",
        "specialty": [
          {
            "coding": [
              {
                "id": "435ade58-eaec-5fe2-97ca-ec299fa5fe45",
                "system": "http://snomed.info/sct",
                "code": "394814009",
                "display": "General practice"
              }
            ],
            "text": "General Medicine"
          }
        ]
      }
    },
    {
      "id": "58502df6-19f1-4c47-b391-6efd5728e2c7",
      "resource": {
        "asserter": {
          "extension": [
            {
              "id": "sourceId",
              "url": "https://www.icanbwell.com/sourceId",
              "valueString": "PractitionerRole/9ec009e4-28f7-4958-86da-256fe0f67c75"
            },
            {
              "id": "uuid",
              "url": "https://www.icanbwell.com/uuid",
              "valueString": "PractitionerRole/9ec009e4-28f7-4958-86da-256fe0f67c75"
            },
            {
              "id": "sourceAssigningAuthority",
              "url": "https://www.icanbwell.com/sourceAssigningAuthority",
              "valueString": "healthsystem1"
            }
          ],
          "reference": "PractitionerRole/9ec009e4-28f7-4958-86da-256fe0f67c75",
          "display": "Dr. Susan Jane"
        },
        "bodySite": [
          {
            "coding": [
              {
                "id": "3201cdbb-6929-585b-9694-0dc84fe84b6c",
                "system": "http://snomed.info/sct",
                "code": "82169009",
                "display": "Right knee joint structure"
              }
            ],
            "text": "Right knee"
          }
        ],
        "category": {
          "coding": [
            {
              "id": "1fdfaaaa-402a-538f-84dd-c21d25c226f5",
              "system": "http://terminology.hl7.org/CodeSystem/procedure-category",
              "code": "surgical",
              "display": "Surgical Operation"
            }
          ],
          "text": "Surgical Operation"
        },
        "code": {
          "coding": [
            {
              "id": "f6027072-072e-5685-b571-a5c8133d5cac",
              "system": "http://snomed.info/sct",
              "code": "72651009",
              "display": "Arthroscopy of knee"
            }
          ],
          "text": "Knee Arthroscopy"
        },
        "id": "58502df6-19f1-4c47-b391-6efd5728e2c7",
        "identifier": [
          {
            "id": "sourceId",
            "system": "https://www.icanbwell.com/sourceId",
            "value": "58502df6-19f1-4c47-b391-6efd5728e2c7"
          },
          {
            "id": "uuid",
            "system": "https://www.icanbwell.com/uuid",
            "value": "58502df6-19f1-4c47-b391-6efd5728e2c7"
          }
        ],
        "meta": {
          "versionId": "1",
          "lastUpdated": "2025-04-16T16:17:04.560Z",
          "source": "healthsystem1",
          "security": [
            {
              "id": "21ef6cd5-667d-53e9-a787-f6fc10847183",
              "system": "https://www.icanbwell.com/access",
              "code": "healthsystem1"
            },
            {
              "id": "6e1a1bd3-9764-55e3-93a3-4cc9f74b3f43",
              "system": "https://www.icanbwell.com/owner",
              "code": "healthsystem1"
            },
            {
              "id": "e4a94e06-a98b-5f89-8724-d2a8cc5bfeef",
              "system": "https://www.icanbwell.com/sourceAssigningAuthority",
              "code": "healthsystem1"
            }
          ]
        },
        "note": [
          {
            "time": "2023-06-15T10:30:00+00:00",
            "text": "Arthroscopic procedure completed successfully. Meniscus repair performed with no complications."
          }
        ],
        "outcome": {
          "coding": [
            {
              "id": "20f8ad3b-6007-5b20-9064-1ab2af6a9a39",
              "system": "http://terminology.hl7.org/CodeSystem/procedure-outcome",
              "code": "successful",
              "display": "Successful"
            }
          ],
          "text": "Procedure completed successfully without complications"
        },
        "performedPeriod": {
          "start": "2023-06-15T09:00:00+00:00",
          "end": "2023-06-15T10:30:00+00:00"
        },
        "performer": [
          {
            "actor": {
              "extension": [
                {
                  "id": "sourceId",
                  "url": "https://www.icanbwell.com/sourceId",
                  "valueString": "PractitionerRole/8143ac7d-ad11-4349-9a3f-da93faae0eae"
                },
                {
                  "id": "uuid",
                  "url": "https://www.icanbwell.com/uuid",
                  "valueString": "PractitionerRole/8143ac7d-ad11-4349-9a3f-da93faae0eae"
                },
                {
                  "id": "sourceAssigningAuthority",
                  "url": "https://www.icanbwell.com/sourceAssigningAuthority",
                  "valueString": "healthsystem1"
                }
              ],
              "reference": "PractitionerRole/8143ac7d-ad11-4349-9a3f-da93faae0eae",
              "display": "Dr. James Smith"
            }
          }
        ],
        "reasonCode": [
          {
            "coding": [
              {
                "id": "715bba65-cc11-53f8-ae10-4898e6901d9a",
                "system": "http://snomed.info/sct",
                "code": "239720000",
                "display": "Tear of meniscus of knee"
              }
            ],
            "text": "Meniscus tear"
          }
        ],
        "recorder": {
          "extension": [
            {
              "id": "sourceId",
              "url": "https://www.icanbwell.com/sourceId",
              "valueString": "PractitionerRole/8143ac7d-ad11-4349-9a3f-da93faae0eae"
            },
            {
              "id": "uuid",
              "url": "https://www.icanbwell.com/uuid",
              "valueString": "PractitionerRole/8143ac7d-ad11-4349-9a3f-da93faae0eae"
            },
            {
              "id": "sourceAssigningAuthority",
              "url": "https://www.icanbwell.com/sourceAssigningAuthority",
              "valueString": "healthsystem1"
            }
          ],
          "reference": "PractitionerRole/8143ac7d-ad11-4349-9a3f-da93faae0eae",
          "display": "Dr. Susan Jane"
        },
        "resourceType": "Procedure",
        "status": "completed",
        "subject": {
          "extension": [
            {
              "id": "sourceId",
              "url": "https://www.icanbwell.com/sourceId",
              "valueString": "Patient/patient1"
            },
            {
              "id": "uuid",
              "url": "https://www.icanbwell.com/uuid",
              "valueString": "Patient/24a5930e-11b4-5525-b482-669174917044"
            },
            {
              "id": "sourceAssigningAuthority",
              "url": "https://www.icanbwell.com/sourceAssigningAuthority",
              "valueString": "healthsystem1"
            }
          ],
          "reference": "Patient/patient1",
          "display": "Test Patient"
        },
        "text": {
          "status": "generated",
          "div": "<div xmlns=\"http://www.w3.org/1999/xhtml\">Knee Arthroscopy</div>"
        }
      }
    }
  ],
  "meta": {
    "tag": [
      {
        "system": "https://www.icanbwell.com/query",
        "display": "db.Patient_4_0_0.find({'_sourceId':'patient1'}, {'_id':0})  | db.Account_4_0_0.find({'subject._uuid':'Patient/24a5930e-11b4-5525-b482-669174917044'}, {}) | db.AdverseEvent_4_0_0.find({'subject._uuid':'Patient/24a5930e-11b4-5525-b482-669174917044'}, {}) | db.AllergyIntolerance_4_0_0.find({'patient._uuid':'Patient/24a5930e-11b4-5525-b482-669174917044'}, {}) | db.Appointment_4_0_0.find({'participant.actor._uuid':'Patient/24a5930e-11b4-5525-b482-669174917044'}, {}) | db.AppointmentResponse_4_0_0.find({'actor._uuid':'Patient/24a5930e-11b4-5525-b482-669174917044'}, {}) | db.BiologicallyDerivedProduct_4_0_0.find({'collection.source._uuid':'Patient/24a5930e-11b4-5525-b482-669174917044'}, {}) | db.Basic_4_0_0.find({'subject._uuid':'Patient/24a5930e-11b4-5525-b482-669174917044'}, {}) | db.BodyStructure_4_0_0.find({'patient._uuid':'Patient/24a5930e-11b4-5525-b482-669174917044'}, {}) | db.CarePlan_4_0_0.find({'subject._uuid':'Patient/24a5930e-11b4-5525-b482-669174917044'}, {}) | db.CareTeam_4_0_0.find({'subject._uuid':'Patient/24a5930e-11b4-5525-b482-669174917044'}, {}) | db.ChargeItem_4_0_0.find({'subject._uuid':'Patient/24a5930e-11b4-5525-b482-669174917044'}, {}) | db.Claim_4_0_0.find({'patient._uuid':'Patient/24a5930e-11b4-5525-b482-669174917044'}, {}) | db.ClaimResponse_4_0_0.find({'patient._uuid':'Patient/24a5930e-11b4-5525-b482-669174917044'}, {}) | db.ClinicalImpression_4_0_0.find({'subject._uuid':'Patient/24a5930e-11b4-5525-b482-669174917044'}, {}) | db.Communication_4_0_0.find({'subject._uuid':'Patient/24a5930e-11b4-5525-b482-669174917044'}, {}) | db.CommunicationRequest_4_0_0.find({'subject._uuid':'Patient/24a5930e-11b4-5525-b482-669174917044'}, {}) | db.Composition_4_0_0.find({'subject._uuid':'Patient/24a5930e-11b4-5525-b482-669174917044'}, {}) | db.Condition_4_0_0.find({'subject._uuid':'Patient/24a5930e-11b4-5525-b482-669174917044'}, {}) | db.Consent_4_0_0.find({'patient._uuid':'Patient/24a5930e-11b4-5525-b482-669174917044'}, {}) | db.Contract_4_0_0.find({'subject._uuid':'Patient/24a5930e-11b4-5525-b482-669174917044'}, {}) | db.Coverage_4_0_0.find({'beneficiary._uuid':'Patient/24a5930e-11b4-5525-b482-669174917044'}, {}) | db.CoverageEligibilityRequest_4_0_0.find({'patient._uuid':'Patient/24a5930e-11b4-5525-b482-669174917044'}, {}) | db.CoverageEligibilityResponse_4_0_0.find({'patient._uuid':'Patient/24a5930e-11b4-5525-b482-669174917044'}, {}) | db.DetectedIssue_4_0_0.find({'patient._uuid':'Patient/24a5930e-11b4-5525-b482-669174917044'}, {}) | db.Device_4_0_0.find({'patient._uuid':'Patient/24a5930e-11b4-5525-b482-669174917044'}, {}) | db.DeviceRequest_4_0_0.find({'subject._uuid':'Patient/24a5930e-11b4-5525-b482-669174917044'}, {}) | db.DeviceUseStatement_4_0_0.find({'subject._uuid':'Patient/24a5930e-11b4-5525-b482-669174917044'}, {}) | db.DiagnosticReport_4_0_0.find({'subject._uuid':'Patient/24a5930e-11b4-5525-b482-669174917044'}, {}) | db.DocumentManifest_4_0_0.find({'subject._uuid':'Patient/24a5930e-11b4-5525-b482-669174917044'}, {}) | db.DocumentReference_4_0_0.find({'subject._uuid':'Patient/24a5930e-11b4-5525-b482-669174917044'}, {}) | db.Encounter_4_0_0.find({'subject._uuid':'Patient/24a5930e-11b4-5525-b482-669174917044'}, {}) | db.EnrollmentRequest_4_0_0.find({'candidate._uuid':'Patient/24a5930e-11b4-5525-b482-669174917044'}, {}) | db.EpisodeOfCare_4_0_0.find({'patient._uuid':'Patient/24a5930e-11b4-5525-b482-669174917044'}, {}) | db.ExplanationOfBenefit_4_0_0.find({'patient._uuid':'Patient/24a5930e-11b4-5525-b482-669174917044'}, {}) | db.FamilyMemberHistory_4_0_0.find({'patient._uuid':'Patient/24a5930e-11b4-5525-b482-669174917044'}, {}) | db.Flag_4_0_0.find({'subject._uuid':'Patient/24a5930e-11b4-5525-b482-669174917044'}, {}) | db.Goal_4_0_0.find({'subject._uuid':'Patient/24a5930e-11b4-5525-b482-669174917044'}, {}) | db.Group_4_0_0.find({'member.entity._uuid':'Patient/24a5930e-11b4-5525-b482-669174917044'}, {}) | db.GuidanceResponse_4_0_0.find({'subject._uuid':'Patient/24a5930e-11b4-5525-b482-669174917044'}, {}) | db.ImagingStudy_4_0_0.find({'subject._uuid':'Patient/24a5930e-11b4-5525-b482-669174917044'}, {}) | db.Immunization_4_0_0.find({'patient._uuid':'Patient/24a5930e-11b4-5525-b482-669174917044'}, {}) | db.ImmunizationEvaluation_4_0_0.find({'patient._uuid':'Patient/24a5930e-11b4-5525-b482-669174917044'}, {}) | db.ImmunizationRecommendation_4_0_0.find({'patient._uuid':'Patient/24a5930e-11b4-5525-b482-669174917044'}, {}) | db.Invoice_4_0_0.find({'subject._uuid':'Patient/24a5930e-11b4-5525-b482-669174917044'}, {}) | db.Linkage_4_0_0.find({'item.resource._uuid':'Patient/24a5930e-11b4-5525-b482-669174917044'}, {}) | db.List_4_0_0.find({'subject._uuid':'Patient/24a5930e-11b4-5525-b482-669174917044'}, {}) | db.MeasureReport_4_0_0.find({'subject._uuid':'Patient/24a5930e-11b4-5525-b482-669174917044'}, {}) | db.Media_4_0_0.find({'subject._uuid':'Patient/24a5930e-11b4-5525-b482-669174917044'}, {}) | db.MedicationAdministration_4_0_0.find({'subject._uuid':'Patient/24a5930e-11b4-5525-b482-669174917044'}, {}) | db.MedicationDispense_4_0_0.find({'subject._uuid':'Patient/24a5930e-11b4-5525-b482-669174917044'}, {}) | db.MedicationRequest_4_0_0.find({'subject._uuid':'Patient/24a5930e-11b4-5525-b482-669174917044'}, {}) | db.MedicationStatement_4_0_0.find({'subject._uuid':'Patient/24a5930e-11b4-5525-b482-669174917044'}, {}) | db.MolecularSequence_4_0_0.find({'patient._uuid':'Patient/24a5930e-11b4-5525-b482-669174917044'}, {}) | db.NutritionOrder_4_0_0.find({'patient._uuid':'Patient/24a5930e-11b4-5525-b482-669174917044'}, {}) | db.Observation_4_0_0.find({'subject._uuid':'Patient/24a5930e-11b4-5525-b482-669174917044'}, {}) | db.Patient_4_0_0.find({'link.other._uuid':'Patient/24a5930e-11b4-5525-b482-669174917044'}, {}) | db.PaymentNotice_4_0_0.find({'request._uuid':'Patient/24a5930e-11b4-5525-b482-669174917044'}, {}) | db.Person_4_0_0.find({'link.target._uuid':'Patient/24a5930e-11b4-5525-b482-669174917044'}, {}) | db.Procedure_4_0_0.find({'subject._uuid':'Patient/24a5930e-11b4-5525-b482-669174917044'}, {}) | db.Provenance_4_0_0.find({'target._uuid':'Patient/24a5930e-11b4-5525-b482-669174917044'}, {}) | db.QuestionnaireResponse_4_0_0.find({'subject._uuid':'Patient/24a5930e-11b4-5525-b482-669174917044'}, {}) | db.RelatedPerson_4_0_0.find({'patient._uuid':'Patient/24a5930e-11b4-5525-b482-669174917044'}, {}) | db.RequestGroup_4_0_0.find({'subject._uuid':'Patient/24a5930e-11b4-5525-b482-669174917044'}, {}) | db.ResearchSubject_4_0_0.find({'individual._uuid':'Patient/24a5930e-11b4-5525-b482-669174917044'}, {}) | db.RiskAssessment_4_0_0.find({'subject._uuid':'Patient/24a5930e-11b4-5525-b482-669174917044'}, {}) | db.Schedule_4_0_0.find({'actor._uuid':'Patient/24a5930e-11b4-5525-b482-669174917044'}, {}) | db.ServiceRequest_4_0_0.find({'subject._uuid':'Patient/24a5930e-11b4-5525-b482-669174917044'}, {}) | db.Specimen_4_0_0.find({'subject._uuid':'Patient/24a5930e-11b4-5525-b482-669174917044'}, {}) | db.Subscription_4_0_0.find({'$and':[{'extension':{'$elemMatch':{'url':'https://icanbwell.com/codes/source_patient_id','valueString':'patient1'}}},{'extension':{'$elemMatch':{'url':'https://icanbwell.com/codes/service_slug','valueString':'healthsystem1'}}}]}, {}) | db.SubscriptionStatus_4_0_0.find({'$and':[{'extension':{'$elemMatch':{'url':'https://icanbwell.com/codes/source_patient_id','valueString':'patient1'}}},{'extension':{'$elemMatch':{'url':'https://icanbwell.com/codes/service_slug','valueString':'healthsystem1'}}}]}, {}) | db.SubscriptionTopic_4_0_0.find({'$and':[{'identifier':{'$elemMatch':{'system':'https://icanbwell.com/codes/source_patient_id','value':'patient1'}}},{'identifier':{'$elemMatch':{'system':'https://icanbwell.com/codes/service_slug','value':'healthsystem1'}}}]}, {}) | db.SupplyDelivery_4_0_0.find({'patient._uuid':'Patient/24a5930e-11b4-5525-b482-669174917044'}, {}) | db.SupplyRequest_4_0_0.find({'requester._uuid':'Patient/24a5930e-11b4-5525-b482-669174917044'}, {}) | db.Task_4_0_0.find({'for._uuid':'Patient/24a5930e-11b4-5525-b482-669174917044'}, {}) | db.VisionPrescription_4_0_0.find({'patient._uuid':'Patient/24a5930e-11b4-5525-b482-669174917044'}, {}) | db.Organization_4_0_0.find({'_sourceId':'hl7'}, {}) | db.Medication_4_0_0.find({'_uuid':'b0e0113d-23a0-5742-a054-c8afe008010b'}, {}) | db.Practitioner_4_0_0.find({'_uuid':'aa8a8ff8-af25-5878-8cf3-bc74227d44dd'}, {}) | db.Binary_4_0_0.find({'_sourceId':{'$in':['binary1','binary2']}}, {}) | db.PaymentReconciliation_4_0_0.find({'_sourceId':'ER2500'}, {}) | db.PractitionerRole_4_0_0.find({'_uuid':{'$in':['8143ac7d-ad11-4349-9a3f-da93faae0eae','9ec009e4-28f7-4958-86da-256fe0f67c75']}}, {}) | db.Organization_4_0_0.find({'_uuid':'d187d5ce-f842-5e13-a4db-961d8e728ebc'}, {}) | db.Practitioner_4_0_0.find({'_uuid':{'$in':['a699b172-996a-48f2-9f52-ab3e34c88d28','135bd32b-f8fe-47c0-98aa-ea6f7d15af6a']}}, {}) | db.Location_4_0_0.find({'_uuid':'9c1e9c7f-959b-4a53-892a-2760cfd760bf'}, {}) | db.Organization_4_0_0.find({'_uuid':{'$in':['d187d5ce-f842-5e13-a4db-961d8e728ebc','7712bd08-fd99-561d-9324-d2fcd41fb009']}}, {})"
      },
      {
        "system": "https://www.icanbwell.com/queryCollection",
        "code": "Patient_4_0_0|Account_4_0_0|AdverseEvent_4_0_0|AllergyIntolerance_4_0_0|Appointment_4_0_0|AppointmentResponse_4_0_0|BiologicallyDerivedProduct_4_0_0|Basic_4_0_0|BodyStructure_4_0_0|CarePlan_4_0_0|CareTeam_4_0_0|ChargeItem_4_0_0|Claim_4_0_0|ClaimResponse_4_0_0|ClinicalImpression_4_0_0|Communication_4_0_0|CommunicationRequest_4_0_0|Composition_4_0_0|Condition_4_0_0|Consent_4_0_0|Contract_4_0_0|Coverage_4_0_0|CoverageEligibilityRequest_4_0_0|CoverageEligibilityResponse_4_0_0|DetectedIssue_4_0_0|Device_4_0_0|DeviceRequest_4_0_0|DeviceUseStatement_4_0_0|DiagnosticReport_4_0_0|DocumentManifest_4_0_0|DocumentReference_4_0_0|Encounter_4_0_0|EnrollmentRequest_4_0_0|EpisodeOfCare_4_0_0|ExplanationOfBenefit_4_0_0|FamilyMemberHistory_4_0_0|Flag_4_0_0|Goal_4_0_0|Group_4_0_0|GuidanceResponse_4_0_0|ImagingStudy_4_0_0|Immunization_4_0_0|ImmunizationEvaluation_4_0_0|ImmunizationRecommendation_4_0_0|Invoice_4_0_0|Linkage_4_0_0|List_4_0_0|MeasureReport_4_0_0|Media_4_0_0|MedicationAdministration_4_0_0|MedicationDispense_4_0_0|MedicationRequest_4_0_0|MedicationStatement_4_0_0|MolecularSequence_4_0_0|NutritionOrder_4_0_0|Observation_4_0_0|Patient_4_0_0|PaymentNotice_4_0_0|Person_4_0_0|Procedure_4_0_0|Provenance_4_0_0|QuestionnaireResponse_4_0_0|RelatedPerson_4_0_0|RequestGroup_4_0_0|ResearchSubject_4_0_0|RiskAssessment_4_0_0|Schedule_4_0_0|ServiceRequest_4_0_0|Specimen_4_0_0|Subscription_4_0_0|SubscriptionStatus_4_0_0|SubscriptionTopic_4_0_0|SupplyDelivery_4_0_0|SupplyRequest_4_0_0|Task_4_0_0|VisionPrescription_4_0_0|Organization_4_0_0|Medication_4_0_0|Practitioner_4_0_0|Binary_4_0_0|PaymentReconciliation_4_0_0|PractitionerRole_4_0_0|Organization_4_0_0|Practitioner_4_0_0|Location_4_0_0|Organization_4_0_0"
      },
      {
        "system": "https://www.icanbwell.com/queryOptions",
        "display": "[{'projection':{'_id':0}}]"
      },
      {
        "system": "https://www.icanbwell.com/queryFields",
        "display": "[]"
      },
      {
        "system": "https://www.icanbwell.com/queryTime"
      },
      {
        "system": "https://www.icanbwell.com/queryOptimization",
        "display": "{'useTwoStepSearchOptimization':undefined}"
      },
      {
        "system": "https://www.icanbwell.com/queryExplain"
      },
      {
        "system": "https://www.icanbwell.com/queryExplainSimple"
      }
    ]
  },
  "resourceType": "Bundle",
  "type": "searchset",
  "timestamp": "2023-12-20T03:31:07.077Z",
  "total": 23,
  "link": [
    {
      "relation": "self",
      "url": "http://localhost:3000/4_0_0/Patient/patient1/$everything"
    }
  ]
}