{
    "entry": [
        {
            "id": "patient1",
            "resource": {
                "resourceType": "Patient",
                "id": "patient1",
                "meta": {
                    "versionId": "1",
                    "lastUpdated": "2023-12-20T03:30:49.000Z",
                    "source": "http://healthsystem1health.org/provider",
                    "security": [
                        {
                            "system": "https://www.icanbwell.com/access",
                            "code": "healthsystem1"
                        },
                        {
                            "system": "https://www.icanbwell.com/owner",
                            "code": "healthsystem1"
                        },
                        {
                            "system": "https://www.icanbwell.com/sourceAssigningAuthority",
                            "code": "healthsystem1"
                        }
                    ]
                },
                "identifier": [
                    {
                        "id": "sourceId",
                        "system": "https://www.icanbwell.com/sourceId",
                        "value": "patient1"
                    },
                    {
                        "id": "uuid",
                        "system": "https://www.icanbwell.com/uuid",
                        "value": "24a5930e-11b4-5525-b482-669174917044"
                    }
                ],
                "name": [
                    {
                        "use": "usual",
                        "text": "t",
                        "family": "PATIENT1",
                        "given": ["SHYLA"]
                    }
                ],
                "gender": "female",
                "birthDate": "2017-01-01"
            }
        },
        {
            "id": "example",
            "resource": {
                "resourceType": "Account",
                "id": "example",
                "meta": {
                    "versionId": "1",
                    "lastUpdated": "2023-12-20T03:30:50.000Z",
                    "source": "http://healthsystem1health.org/provider",
                    "security": [
                        {
                            "system": "https://www.icanbwell.com/access",
                            "code": "healthsystem1"
                        },
                        {
                            "system": "https://www.icanbwell.com/owner",
                            "code": "healthsystem1"
                        },
                        {
                            "system": "https://www.icanbwell.com/sourceAssigningAuthority",
                            "code": "healthsystem1"
                        }
                    ]
                },
                "text": {
                    "status": "generated",
                    "div": "<div xmlns=\"http://www.w3.org/1999/xhtml\">HACC Funded Billing for Peter James Chalmers</div>"
                },
                "identifier": [
                    {
                        "system": "urn:oid:0.1.2.3.4.5.6.7",
                        "value": "654321"
                    },
                    {
                        "id": "sourceId",
                        "system": "https://www.icanbwell.com/sourceId",
                        "value": "example"
                    },
                    {
                        "id": "uuid",
                        "system": "https://www.icanbwell.com/uuid",
                        "value": "ce2b3f55-8a3b-5f06-a449-708dd992119e"
                    }
                ],
                "status": "active",
                "type": {
                    "coding": [
                        {
                            "system": "http://terminology.hl7.org/CodeSystem/v3-ActCode",
                            "code": "PBILLACCT",
                            "display": "patient billing account"
                        }
                    ],
                    "text": "patient"
                },
                "name": "HACC Funded Billing for Peter James Chalmers",
                "subject": [
                    {
                        "extension": [
                            {
                                "id": "sourceId",
                                "url": "https://www.icanbwell.com/sourceId",
                                "valueString": "Patient/patient1"
                            },
                            {
                                "id": "uuid",
                                "url": "https://www.icanbwell.com/uuid",
                                "valueString": "Patient/24a5930e-11b4-5525-b482-669174917044"
                            },
                            {
                                "id": "sourceAssigningAuthority",
                                "url": "https://www.icanbwell.com/sourceAssigningAuthority",
                                "valueString": "healthsystem1"
                            }
                        ],
                        "reference": "Patient/patient1",
                        "display": "Peter James Chalmers"
                    }
                ],
                "servicePeriod": {
                    "start": "2016-01-01",
                    "end": "2016-06-30"
                },
                "coverage": [
                    {
                        "coverage": {
                            "extension": [
                                {
                                    "id": "sourceId",
                                    "url": "https://www.icanbwell.com/sourceId",
                                    "valueString": "Coverage/7546D"
                                },
                                {
                                    "id": "uuid",
                                    "url": "https://www.icanbwell.com/uuid",
                                    "valueString": "Coverage/baab0c4a-2c6a-5acb-8d82-c039dd9b3efb"
                                },
                                {
                                    "id": "sourceAssigningAuthority",
                                    "url": "https://www.icanbwell.com/sourceAssigningAuthority",
                                    "valueString": "healthsystem1"
                                }
                            ],
                            "reference": "Coverage/7546D"
                        },
                        "priority": 1
                    }
                ],
                "owner": {
                    "extension": [
                        {
                            "id": "sourceId",
                            "url": "https://www.icanbwell.com/sourceId",
                            "valueString": "Organization/hl7"
                        },
                        {
                            "id": "uuid",
                            "url": "https://www.icanbwell.com/uuid",
                            "valueString": "Organization/214ca533-fb96-562d-824d-3aca1406f3fb"
                        },
                        {
                            "id": "sourceAssigningAuthority",
                            "url": "https://www.icanbwell.com/sourceAssigningAuthority",
                            "valueString": "healthsystem1"
                        }
                    ],
                    "reference": "Organization/hl7"
                },
                "description": "Hospital charges"
            }
        },
        {
            "id": "2354-InAgeCohort",
            "resource": {
                "resourceType": "Observation",
                "id": "2354-InAgeCohort",
                "meta": {
                    "versionId": "1",
                    "lastUpdated": "2023-12-20T03:30:50.000Z",
                    "source": "/patients",
                    "security": [
                        {
                            "system": "https://www.icanbwell.com/owner",
                            "code": "healthsystem1"
                        },
                        {
                            "system": "https://www.icanbwell.com/access",
                            "code": "healthsystem1"
                        },
                        {
                            "system": "https://www.icanbwell.com/vendor",
                            "code": "B"
                        },
                        {
                            "system": "https://www.icanbwell.com/access",
                            "code": "B"
                        },
                        {
                            "system": "https://www.icanbwell.com/sourceAssigningAuthority",
                            "code": "healthsystem1"
                        }
                    ]
                },
                "identifier": [
                    {
                        "id": "sourceId",
                        "system": "https://www.icanbwell.com/sourceId",
                        "value": "2354-InAgeCohort"
                    },
                    {
                        "id": "uuid",
                        "system": "https://www.icanbwell.com/uuid",
                        "value": "61886699-c643-5e3b-a074-569e4c43bddf"
                    }
                ],
                "status": "final",
                "code": {
                    "coding": [
                        {
                            "system": "http://www.icanbwell.com/cql/library",
                            "code": "BMI001"
                        },
                        {
                            "system": "http://www.icanbwell.com/cql/libraryVersion",
                            "code": "1.0.0"
                        },
                        {
                            "system": "http://www.icanbwell.com/cql/rule",
                            "code": "InAgeCohort"
                        }
                    ]
                },
                "subject": {
                    "extension": [
                        {
                            "id": "sourceId",
                            "url": "https://www.icanbwell.com/sourceId",
                            "valueString": "Patient/patient1"
                        },
                        {
                            "id": "uuid",
                            "url": "https://www.icanbwell.com/uuid",
                            "valueString": "Patient/24a5930e-11b4-5525-b482-669174917044"
                        },
                        {
                            "id": "sourceAssigningAuthority",
                            "url": "https://www.icanbwell.com/sourceAssigningAuthority",
                            "valueString": "healthsystem1"
                        }
                    ],
                    "reference": "Patient/patient1"
                },
                "effectivePeriod": {
                    "start": "2021-01-01T00:00:00.000Z",
                    "end": "2021-12-31T00:00:00.000Z"
                },
                "issued": "2021-01-01T12:00:00.000Z",
                "valueBoolean": false
            }
        },
        {
            "id": "person1",
            "resource": {
                "resourceType": "Person",
                "id": "person1",
                "meta": {
                    "versionId": "1",
                    "lastUpdated": "2023-12-20T03:30:49.000Z",
                    "source": "healthsystem1",
                    "security": [
                        {
                            "system": "https://www.icanbwell.com/access",
                            "code": "healthsystem1"
                        },
                        {
                            "system": "https://www.icanbwell.com/owner",
                            "code": "healthsystem1"
                        },
                        {
                            "system": "https://www.icanbwell.com/sourceAssigningAuthority",
                            "code": "healthsystem1"
                        }
                    ]
                },
                "identifier": [
                    {
                        "id": "sourceId",
                        "system": "https://www.icanbwell.com/sourceId",
                        "value": "person1"
                    },
                    {
                        "id": "uuid",
                        "system": "https://www.icanbwell.com/uuid",
                        "value": "5f3ca115-8630-5e55-a97d-4d6ee26c0adc"
                    }
                ],
                "name": [
                    {
                        "use": "usual",
                        "text": "t",
                        "family": "person1",
                        "given": ["OTHER"]
                    }
                ],
                "gender": "male",
                "birthDate": "1990-01-01",
                "link": [
                    {
                        "target": {
                            "extension": [
                                {
                                    "id": "sourceId",
                                    "url": "https://www.icanbwell.com/sourceId",
                                    "valueString": "Patient/patient1"
                                },
                                {
                                    "id": "uuid",
                                    "url": "https://www.icanbwell.com/uuid",
                                    "valueString": "Patient/24a5930e-11b4-5525-b482-669174917044"
                                },
                                {
                                    "id": "sourceAssigningAuthority",
                                    "url": "https://www.icanbwell.com/sourceAssigningAuthority",
                                    "valueString": "healthsystem1"
                                }
                            ],
                            "reference": "Patient/patient1|healthsystem1",
                            "type": "Patient"
                        },
                        "assurance": "level4"
                    }
                ]
            }
        },
        {
            "id": "care-plan-1",
            "resource": {
                "activity": [
                    {
                        "detail": {
                            "code": {
                                "coding": [
                                    {
                                        "code": "160670007",
                                        "display": "Diabetic diet",
                                        "system": "http://snomed.info/sct"
                                    }
                                ],
                                "text": "Diabetic diet"
                            },
                            "status": "in-progress"
                        }
                    },
                    {
                        "detail": {
                            "productReference": {
                                "extension": [
                                    {
                                        "id": "sourceId",
                                        "url": "https://www.icanbwell.com/sourceId",
                                        "valueString": "Medication/b0e0113d-23a0-5742-a054-c8afe008010b"
                                    },
                                    {
                                        "id": "uuid",
                                        "url": "https://www.icanbwell.com/uuid",
                                        "valueString": "Medication/b0e0113d-23a0-5742-a054-c8afe008010b"
                                    },
                                    {
                                        "id": "sourceAssigningAuthority",
                                        "url": "https://www.icanbwell.com/sourceAssigningAuthority",
                                        "valueString": "healthsystem1"
                                    }
                                ],
                                "reference": "Medication/b0e0113d-23a0-5742-a054-c8afe008010b"
                            },
                            "code": {
                                "coding": [
                                    {
                                        "code": "229065009",
                                        "display": "Exercise therapy",
                                        "system": "http://snomed.info/sct"
                                    }
                                ],
                                "text": "Exercise therapy"
                            },
                            "status": "in-progress"
                        }
                    }
                ],
                "category": [
                    {
                        "coding": [
                            {
                                "code": "assess-plan",
                                "system": "http://hl7.org/fhir/us/core/CodeSystem/careplan-category"
                            }
                        ]
                    },
                    {
                        "coding": [
                            {
                                "code": "698360004",
                                "display": "Diabetes self management plan",
                                "system": "http://terminology.hl7.org/NamingSystem/mddid"
                            }
                        ],
                        "text": "Diabetes self management plan"
                    }
                ],
                "id": "care-plan-1",
                "identifier": [
                    {
                        "id": "sourceId",
                        "system": "https://www.icanbwell.com/sourceId",
                        "value": "care-plan-1"
                    },
                    {
                        "id": "uuid",
                        "system": "https://www.icanbwell.com/uuid",
                        "value": "f49c5e15-81b5-57a9-bade-77e9e744fb2e"
                    }
                ],
                "intent": "order",
                "meta": {
                    "security": [
                        {
                            "system": "https://www.icanbwell.com/owner",
                            "code": "healthsystem1"
                        },
                        {
                            "system": "https://www.icanbwell.com/access",
                            "code": "healthsystem1"
                        },
                        {
                            "system": "https://www.icanbwell.com/vendor",
                            "code": "B"
                        },
                        {
                            "system": "https://www.icanbwell.com/access",
                            "code": "B"
                        },
                        {
                            "code": "healthsystem1",
                            "system": "https://www.icanbwell.com/sourceAssigningAuthority"
                        }
                    ],
                    "source": "https://www.icanbwell.com",
                    "versionId": "1"
                },
                "period": {
                    "end": "2013-03-03T01:45:51+00:00",
                    "start": "2012-03-03T01:45:51+00:00"
                },
                "resourceType": "CarePlan",
                "status": "active",
                "subject": {
                    "extension": [
                        {
                            "id": "sourceId",
                            "url": "https://www.icanbwell.com/sourceId",
                            "valueString": "Patient/patient1"
                        },
                        {
                            "id": "uuid",
                            "url": "https://www.icanbwell.com/uuid",
                            "valueString": "Patient/24a5930e-11b4-5525-b482-669174917044"
                        },
                        {
                            "id": "sourceAssigningAuthority",
                            "url": "https://www.icanbwell.com/sourceAssigningAuthority",
                            "valueString": "healthsystem1"
                        }
                    ],
                    "reference": "Patient/patient1"
                },
                "text": {
                    "div": "<div xmlns=\"http://www.w3.org/1999/xhtml\">Care Plan for Diabetes self management plan.<br/>Activities: <ul><li>Diabetes self management plan</li><li>Diabetes self management plan</li></ul><br/>Care plan is meant to treat Prediabetes.</div>",
                    "status": "generated"
                },
                "title": "Diabetes self management plan"
            }
        },
        {
            "id": "1",
            "resource": {
                "id": "1",
                "identifier": [
                    {
                        "id": "sourceId",
                        "system": "https://www.icanbwell.com/sourceId",
                        "value": "1"
                    },
                    {
                        "id": "uuid",
                        "system": "https://www.icanbwell.com/uuid",
                        "value": "42f7c218-bb50-56d5-b0d4-fe92a8e5f23b"
                    }
                ],
                "resourceType": "Condition",
                "meta": {
                    "source": "test",
                    "versionId": "1",
                    "security": [
                        {
                            "system": "https://www.icanbwell.com/owner",
                            "code": "healthsystem1"
                        },
                        {
                            "system": "https://www.icanbwell.com/access",
                            "code": "healthsystem1"
                        },
                        {
                            "system": "https://www.icanbwell.com/vendor",
                            "code": "B"
                        },
                        {
                            "system": "https://www.icanbwell.com/access",
                            "code": "B"
                        },
                        {
                            "code": "healthsystem1",
                            "system": "https://www.icanbwell.com/sourceAssigningAuthority"
                        }
                    ]
                },
                "subject": {
                    "extension": [
                        {
                            "id": "sourceId",
                            "url": "https://www.icanbwell.com/sourceId",
                            "valueString": "Patient/patient1"
                        },
                        {
                            "id": "uuid",
                            "url": "https://www.icanbwell.com/uuid",
                            "valueString": "Patient/24a5930e-11b4-5525-b482-669174917044"
                        },
                        {
                            "id": "sourceAssigningAuthority",
                            "url": "https://www.icanbwell.com/sourceAssigningAuthority",
                            "valueString": "healthsystem1"
                        }
                    ],
                    "reference": "Patient/patient1"
                },
                "recorder": {
                    "extension": [
                        {
                            "id": "sourceId",
                            "url": "https://www.icanbwell.com/sourceId",
                            "valueString": "Practitioner/aa8a8ff8-af25-5878-8cf3-bc74227d44dd"
                        },
                        {
                            "id": "uuid",
                            "url": "https://www.icanbwell.com/uuid",
                            "valueString": "Practitioner/aa8a8ff8-af25-5878-8cf3-bc74227d44dd"
                        },
                        {
                            "id": "sourceAssigningAuthority",
                            "url": "https://www.icanbwell.com/sourceAssigningAuthority",
                            "valueString": "healthsystem1"
                        }
                    ],
                    "reference": "Practitioner/aa8a8ff8-af25-5878-8cf3-bc74227d44dd"
                }
            }
        },
        {
            "id": "733797173",
            "resource": {
                "active": true,
                "address": [
                    {
                        "city": "Perry Hall",
                        "line": ["5009 Honeygo Center Drive", "Suite 216"],
                        "postalCode": "21128",
                        "state": "MD"
                    }
                ],
                "alias": ["Client Medical Group Derm at Honeygo"],
                "contact": [
                    {
                        "purpose": {
                            "coding": [
                                {
                                    "code": "Central Scheduling",
                                    "system": "ClientHealth.org"
                                }
                            ]
                        },
                        "telecom": [
                            {
                                "system": "phone",
                                "use": "work"
                            }
                        ]
                    }
                ],
                "extension": [
                    {
                        "valueDecimal": -76.61668
                    },
                    {
                        "valueDecimal": 39.32792
                    }
                ],
                "id": "733797173",
                "identifier": [
                    {
                        "system": "bwell",
                        "use": "usual",
                        "value": "-733797173"
                    },
                    {
                        "id": "sourceId",
                        "system": "https://www.icanbwell.com/sourceId",
                        "value": "733797173"
                    },
                    {
                        "id": "uuid",
                        "system": "https://www.icanbwell.com/uuid",
                        "value": "d187d5ce-f842-5e13-a4db-961d8e728ebc"
                    }
                ],
                "meta": {
                    "security": [
                        {
                            "code": "client",
                            "system": "https://www.icanbwell.com/access"
                        },
                        {
                            "code": "bwell",
                            "system": "https://www.icanbwell.com/owner"
                        },
                        {
                            "code": "bwell",
                            "system": "https://www.icanbwell.com/sourceAssigningAuthority"
                        }
                    ],
                    "source": "https://www.foo.com",
                    "versionId": "1"
                },
                "name": "Client Medical Group Dermatology at Honeygo",
                "partOf": {
                    "extension": [
                        {
                            "id": "sourceId",
                            "url": "https://www.icanbwell.com/sourceId",
                            "valueString": "Organization/7712bd08-fd99-561d-9324-d2fcd41fb009"
                        },
                        {
                            "id": "uuid",
                            "url": "https://www.icanbwell.com/uuid",
                            "valueString": "Organization/7712bd08-fd99-561d-9324-d2fcd41fb009"
                        },
                        {
                            "id": "sourceAssigningAuthority",
                            "url": "https://www.icanbwell.com/sourceAssigningAuthority",
                            "valueString": "bwell"
                        }
                    ],
                    "reference": "Organization/7712bd08-fd99-561d-9324-d2fcd41fb009",
                    "display": "Client Medical Group",
                    "type": "Organization"
                },
                "resourceType": "Organization",
                "telecom": [
                    {
                        "system": "phone",
                        "value": "(410) 256-5858"
                    },
                    {
                        "system": "fax",
                        "value": "(866) 733-0434"
                    }
                ],
                "type": [
                    {
                        "coding": [
                            {
                                "code": "prov",
                                "display": "Healthcare Provider",
                                "system": "http://terminology.hl7.org/CodeSystem/organization-type"
                            }
                        ],
                        "text": "Healthcare Organization"
                    },
                    {
                        "coding": [
                            {
                                "code": "prov",
                                "display": "Emergency Room",
                                "system": "http://terminology.hl7.org/CodeSystem/organization-type"
                            }
                        ],
                        "text": "ER Indicator"
                    }
                ]
            }
        },
        {
            "id": "medication-prednisolone",
            "resource": {
                "code": {
                    "coding": [
                        {
                            "code": "135615",
                            "system": "urn:oid:2.16.840.1.113883.6.253"
                        },
                        {
                            "code": "61100020102020",
                            "system": "urn:oid:2.16.840.1.113883.6.68"
                        },
                        {
                            "code": "59073",
                            "system": "urn:oid:2.16.840.1.113883.6.162"
                        },
                        {
                            "code": "3287",
                            "system": "http://www.nlm.nih.gov/research/umls/rxnorm"
                        },
                        {
                            "code": "3288",
                            "system": "http://www.nlm.nih.gov/research/umls/rxnorm"
                        },
                        {
                            "code": "822929",
                            "system": "http://www.nlm.nih.gov/research/umls/rxnorm"
                        },
                        {
                            "code": "884522",
                            "system": "http://www.nlm.nih.gov/research/umls/rxnorm"
                        }
                    ],
                    "text": "prednisolone 1 MG/ML [Pediapred]"
                },
                "form": {
                    "coding": [
                        {
                            "code": "SOLN",
                            "display": "Solution",
                            "system": "urn:oid:1.2.840.114350.1.13.283.3.7.4.698288.310"
                        }
                    ],
                    "text": "Solution"
                },
                "id": "medication-prednisolone",
                "identifier": [
                    {
                        "id": "sourceId",
                        "system": "https://www.icanbwell.com/sourceId",
                        "value": "medication-prednisolone"
                    },
                    {
                        "id": "uuid",
                        "system": "https://www.icanbwell.com/uuid",
                        "value": "b0e0113d-23a0-5742-a054-c8afe008010b"
                    }
                ],
                "ingredient": [
                    {
                        "itemCodeableConcept": {
                            "coding": [
                                {
                                    "code": "135615",
                                    "system": "urn:oid:2.16.840.1.113883.6.253"
                                },
                                {
                                    "code": "61100020102020",
                                    "system": "urn:oid:2.16.840.1.113883.6.68"
                                },
                                {
                                    "code": "59073",
                                    "system": "urn:oid:2.16.840.1.113883.6.162"
                                },
                                {
                                    "code": "3287",
                                    "system": "http://www.nlm.nih.gov/research/umls/rxnorm"
                                },
                                {
                                    "code": "3288",
                                    "system": "http://www.nlm.nih.gov/research/umls/rxnorm"
                                },
                                {
                                    "code": "822929",
                                    "system": "http://www.nlm.nih.gov/research/umls/rxnorm"
                                },
                                {
                                    "code": "884522",
                                    "system": "http://www.nlm.nih.gov/research/umls/rxnorm"
                                }
                            ],
                            "text": "Dextroamphetamine Sulfate 5 MG/5ML Soln oral solution"
                        },
                        "strength": {
                            "denominator": {
                                "unit": "MG/5ML",
                                "value": 5
                            },
                            "numerator": {
                                "unit": "MG/5ML",
                                "value": 5
                            }
                        }
                    }
                ],
                "meta": {
                    "security": [
                        {
                            "code": "my-companyuat",
                            "system": "https://www.icanbwell.com/owner"
                        },
                        {
                            "code": "my-companyuat",
                            "system": "https://www.icanbwell.com/access"
                        },
                        {
                            "code": "my-companyuat",
                            "system": "https://www.icanbwell.com/vendor"
                        },
                        {
                            "code": "my-companyuat",
                            "system": "https://www.icanbwell.com/sourceAssigningAuthority"
                        }
                    ],
                    "source": "https://epicfhir.my-company.org/NonProdFHIR/api/FHIR/R4/metadata",
                    "versionId": "1"
                },
                "resourceType": "Medication"
            }
        },
        {
            "id": "1679033641",
            "resource": {
                "active": true,
                "communication": [
                    {
                        "coding": [
                            {
                                "code": "en",
                                "system": "urn:ietf:bcp:47"
                            }
                        ]
                    }
                ],
                "gender": "unknown",
                "id": "1679033641",
                "identifier": [
                    {
                        "system": "http://clienthealth.org",
                        "type": {
                            "coding": [
                                {
                                    "code": "PRN",
                                    "system": "http://terminology.hl7.org/CodeSystem/v2-0203"
                                }
                            ]
                        },
                        "use": "usual",
                        "value": "4657"
                    },
                    {
                        "system": "http://hl7.org/fhir/sid/us-npi",
                        "type": {
                            "coding": [
                                {
                                    "code": "NPI",
                                    "system": "http://terminology.hl7.org/CodeSystem/v2-0203"
                                }
                            ]
                        },
                        "use": "official",
                        "value": "1679033641"
                    },
                    {
                        "id": "sourceId",
                        "system": "https://www.icanbwell.com/sourceId",
                        "value": "1679033641"
                    },
                    {
                        "id": "uuid",
                        "system": "https://www.icanbwell.com/uuid",
                        "value": "aa8a8ff8-af25-5878-8cf3-bc74227d44dd"
                    }
                ],
                "meta": {
                    "security": [
                        {
                            "code": "client",
                            "system": "https://www.icanbwell.com/access"
                        },
                        {
                            "code": "client",
                            "system": "https://www.icanbwell.com/owner"
                        },
                        {
                            "code": "client",
                            "system": "https://www.icanbwell.com/sourceAssigningAuthority"
                        }
                    ],
                    "source": "client",
                    "versionId": "1"
                },
                "name": [
                    {
                        "family": "NAJJAR  MD",
                        "given": ["SAMER S."],
                        "text": "SAMER S. NAJJAR  MD",
                        "use": "usual"
                    },
                    {
                        "family": "NAJJAR  MD",
                        "given": ["SAMER S."],
                        "text": "NAJJAR  MD, SAMER S.",
                        "use": "usual"
                    }
                ],
                "qualification": [
                    {
                        "code": {
                            "coding": [
                                {
                                    "code": "MD",
                                    "system": "http://terminology.hl7.org/ValueSet/v2-2.7-030"
                                }
                            ]
                        }
                    },
                    {
                        "code": {
                            "coding": [
                                {
                                    "code": "MD",
                                    "system": "http://terminology.hl7.org/ValueSet/v2-2.7-030"
                                }
                            ]
                        },
                        "issuer": {
                            "extension": [
                                {
                                    "id": "sourceId",
                                    "url": "https://www.icanbwell.com/sourceId",
                                    "valueString": "Organization/d187d5ce-f842-5e13-a4db-961d8e728ebc"
                                },
                                {
                                    "id": "uuid",
                                    "url": "https://www.icanbwell.com/uuid",
                                    "valueString": "Organization/d187d5ce-f842-5e13-a4db-961d8e728ebc"
                                },
                                {
                                    "id": "sourceAssigningAuthority",
                                    "url": "https://www.icanbwell.com/sourceAssigningAuthority",
                                    "valueString": "client"
                                }
                            ],
                            "reference": "Organization/d187d5ce-f842-5e13-a4db-961d8e728ebc"
                        },
                        "period": {
                            "end": "2021-12-11",
                            "start": "1960-01-01"
                        }
                    }
                ],
                "resourceType": "Practitioner",
                "telecom": [
                    {
                        "system": "email",
                        "use": "work",
                        "value": "foo@foo.com"
                    }
                ]
            }
        },
        {
            "id": "subscription1",
            "resource": {
                "resourceType": "Subscription",
                "id": "subscription1",
                "meta": {
                    "id": "90d8a9a1-ce43-4b2d-9c6a-84d1c5fe1c36",
                    "versionId": "1",
                    "lastUpdated": "2023-02-02T20:33:41.000Z",
                    "source": "https://www.icanbwell.com",
                    "security": [
                        {
                            "system": "https://www.icanbwell.com/owner",
                            "code": "bwell"
                        },
                        {
                            "system": "https://www.icanbwell.com/access",
                            "code": "bwell"
                        },
                        {
                            "system": "https://www.icanbwell.com/sourceAssigningAuthority",
                            "code": "bwell"
                        }
                    ]
                },
                "status": "active",
                "channel": {
                    "type": "rest-hook",
                    "endpoint": "https://www.icanbwell.com/Subscription/123"
                },
                "reason": "Monitor all changes to the Topic",
                "criteria": "Topic/123",
                "extension": [
                    {
                        "id": "ae966c455e1fb4bb45b7c2af6b8b7981d36e90269e6092f5d94af54b99d5a2da",
                        "url": "https://icanbwell.com/codes/master_person_id",
                        "valueString": "a6026593-63b2-4fc6-8129-fe2cd520e7fd"
                    },
                    {
                        "id": "c608fab680d4b6b0e45ccdc3049b109dc3bba852bf2502511243784c9ac5e1ff",
                        "url": "https://icanbwell.com/codes/client_person_id",
                        "valueString": "5f3ca115-8630-5e55-a97d-4d6ee26c0adc"
                    },
                    {
                        "id": "aea01aa309cb938242b47c911ba047196c5b197446301e44ebe219f82a22bed6",
                        "url": "https://icanbwell.com/codes/source_patient_id",
                        "valueString": "24a5930e-11b4-5525-b482-669174917044"
                    },
                    {
                        "id": "db27b29dd0097ea9afce165fadd12189d9635d216517f0e7d02dc243ffe6aae3",
                        "url": "https://icanbwell.com/codes/connection_type",
                        "valueString": "proa"
                    },
                    {
                        "id": "c67138f7dd75adf162cdc5a987e44b1543ad7ea2b0b573f7f65c4adc45199d2a",
                        "url": "https://icanbwell.com/codes/connection_name",
                        "valueString": "Emory Healthcare"
                    },
                    {
                        "id": "c67138f7dd75adf162cdc5a987e44b1543ad7ea2b0b573f7f65c4adc45199d2b",
                        "url": "https://icanbwell.com/codes/service_slug",
                        "valueString": "1234"
                    }
                ]
            }
        },
        {
            "id": "subscriptionStatus1",
            "resource": {
                "resourceType": "SubscriptionStatus",
                "id": "subscriptionStatus1",
                "meta": {
                    "id": "90d8a9a1-ce43-4b2d-9c6a-84d1c5fe1c36",
                    "versionId": "1",
                    "lastUpdated": "2023-02-02T20:33:41.000Z",
                    "source": "https://www.icanbwell.com",
                    "security": [
                        {
                            "system": "https://www.icanbwell.com/owner",
                            "code": "bwell"
                        },
                        {
                            "system": "https://www.icanbwell.com/access",
                            "code": "bwell"
                        },
                        {
                            "system": "https://www.icanbwell.com/sourceAssigningAuthority",
                            "code": "bwell"
                        }
                    ]
                },
                "extension": [
                    {
                        "id": "ae966c455e1fb4bb45b7c2af6b8b7981d36e90269e6092f5d94af54b99d5a2da",
                        "url": "https://icanbwell.com/codes/source_patient_id",
                        "valueString": "24a5930e-11b4-5525-b482-669174917044"
                    },
                    {
                        "id": "c608fab680d4b6b0e45ccdc3049b109dc3bba852bf2502511243784c9ac5e1ff",
                        "url": "https://icanbwell.com/codes/client_person_id",
                        "valueString": "5f3ca115-8630-5e55-a97d-4d6ee26c0adc"
                    }
                ],
                "status": "active",
                "type": "query-status",
                "subscription": {
                    "extension": [
                        {
                            "id": "sourceId",
                            "url": "https://www.icanbwell.com/sourceId",
                            "valueString": "Subscription/subscription1"
                        },
                        {
                            "id": "uuid",
                            "url": "https://www.icanbwell.com/uuid",
                            "valueString": "Subscription/f85ac894-d0e1-50b6-ae0f-967e0e948ee4"
                        },
                        {
                            "id": "sourceAssigningAuthority",
                            "url": "https://www.icanbwell.com/sourceAssigningAuthority",
                            "valueString": "bwell"
                        }
                    ],
                    "reference": "Subscription/subscription1"
                },
                "topic": "SubscriptionTopic/subscriptionTopic1",
                "error": [
                    {
                        "text": "SubscriptionStatus error message",
                        "coding": [
                            {
                                "system": "http://terminology.hl7.org/CodeSystem/subscription-error",
                                "code": "error-response"
                            }
                        ]
                    }
                ],
                "notificationEvent": [
                    {
                        "eventNumber": "1",
                        "timestamp": "2023-02-02T20:33:41.000Z"
                    },
                    {
                        "eventNumber": "2",
                        "timestamp": "2023-02-02T21:33:41.000Z"
                    }
                ]
            }
        },
        {
            "id": "subscriptionTopic1",
            "resource": {
                "resourceType": "SubscriptionTopic",
                "id": "subscriptionTopic1",
                "meta": {
                    "id": "90d8a9a1-ce43-4b2d-9c6a-84d1c5fe1c36",
                    "versionId": "1",
                    "lastUpdated": "2023-02-02T20:33:41.000Z",
                    "source": "https://www.icanbwell.com",
                    "security": [
                        {
                            "system": "https://www.icanbwell.com/owner",
                            "code": "bwell"
                        },
                        {
                            "system": "https://www.icanbwell.com/access",
                            "code": "bwell"
                        },
                        {
                            "system": "https://www.icanbwell.com/sourceAssigningAuthority",
                            "code": "bwell"
                        }
                    ]
                },
                "identifier": [
                    {
                        "id": "ae966c455e1fb4bb45b7c2af6b8b7981d36e90269e6092f5d94af54b99d5a2da",
                        "system": "https://icanbwell.com/codes/master_person_id",
                        "value": "a6026593-63b2-4fc6-8129-fe2cd520e7fd"
                    },
                    {
                        "id": "c608fab680d4b6b0e45ccdc3049b109dc3bba852bf2502511243784c9ac5e1ff",
                        "system": "https://icanbwell.com/codes/client_person_id",
                        "value": "5f3ca115-8630-5e55-a97d-4d6ee26c0adc"
                    },
                    {
                        "id": "aea01aa309cb938242b47c911ba047196c5b197446301e44ebe219f82a22bed6",
                        "system": "https://icanbwell.com/codes/source_patient_id",
                        "value": "24a5930e-11b4-5525-b482-669174917044"
                    },
                    {
                        "id": "db27b29dd0097ea9afce165fadd12189d9635d216517f0e7d02dc243ffe6aae3",
                        "system": "https://icanbwell.com/codes/connection_type",
                        "value": "proa"
                    },
                    {
                        "id": "c67138f7dd75adf162cdc5a987e44b1543ad7ea2b0b573f7f65c4adc45199d2a",
                        "system": "https://icanbwell.com/codes/connection_name",
                        "value": "Emory Healthcare"
                    },
                    {
                        "id": "sourceId",
                        "system": "https://www.icanbwell.com/sourceId",
                        "value": "subscriptionTopic1"
                    },
                    {
                        "id": "uuid",
                        "system": "https://www.icanbwell.com/uuid",
                        "value": "b9fca11f-a5d6-585c-924e-e2df58477a64"
                    }
                ],
                "status": "active",
                "url": "https://fhir-myrecord.cerner.com/r4/5c7467fb-60f9-4172-add4-57667a5dfcfa/",
                "version": "R4",
                "resourceTrigger": [
                    {
                        "id": "fa4e71748b139a51049306a46a9d32f84c422dbedc37140e95cdb645897f2c0b",
                        "resource": "AllergyIntolerance"
                    },
                    {
                        "id": "8a4f957e08cbc33df660502ab227e0c4d43be78d9ebf135cb4d9faccb0d5be5e",
                        "resource": "Appointment"
                    },
                    {
                        "id": "ffc0ebd22c6e363e2aa39f3c60ea700dfd5d2bce33fdb3f0a01fd784a1dfac09",
                        "resource": "CarePlan"
                    },
                    {
                        "id": "39b36d38d6eb03c89206f3b7b74397e7a9d9abb081ad48e3f73dece59dab7ae4",
                        "resource": "Condition"
                    },
                    {
                        "id": "237ef3e4713324c3e02be9ccd88264afa3de1d717e425f0720b5ebbcd8b536d0",
                        "resource": "DiagnosticReport"
                    },
                    {
                        "id": "71fd53f4a18f3d0198537fd2181b7cd0822dcd6cea3fa24af1691b2cd5842ca8",
                        "resource": "Encounter"
                    },
                    {
                        "id": "13d954b7e769fb20015bf4aadab66a0cb3bfa78a067ae8bb4c9a5a002218d302",
                        "resource": "Immunization"
                    },
                    {
                        "id": "595c9ac7d1d66eb7b208ee3b052f87d282abff922a3c4780912abf59e14576f7",
                        "resource": "MedicationAdministration"
                    },
                    {
                        "id": "b6d71b60b934b762fa4ea069e75cf1ede85ff6d3e95a3b8a706df8570f2ea83b",
                        "resource": "MedicationRequest"
                    },
                    {
                        "id": "d239e9cf6a51335bf996fc5db77623d8be287e8b4d8e1cd1be3a0e00c8bbfe57",
                        "resource": "Observation"
                    },
                    {
                        "id": "d764d42592fc968709b4c6c25c6e6b77919295dfce2c57ead02bedac5ddb3218",
                        "resource": "Organization"
                    },
                    {
                        "id": "835043ec8e6b792147ef928d14b2222534bfaeb36c321f991df59390116a6bc7",
                        "resource": "Patient"
                    },
                    {
                        "id": "1bafda37860966b63eaa38e4eecdf65c37fefd075f07bd3a4225035e5abe26bc",
                        "resource": "Practitioner"
                    },
                    {
                        "id": "9c280284ef2669a2be7280a58557e553942fb2e0d2154e3f5949dc153c029bcf",
                        "resource": "Procedure"
                    },
                    {
                        "id": "f4830a1dae2980447c716bd4b5779b7013575ef09f70ef4731457218792487b3",
                        "resource": "Schedule"
                    },
                    {
                        "id": "79689782061dec13dc61a80c224f96c6443d61cdd6e50f7c8cace113ba74f761",
                        "resource": "Slot"
                    }
                ]
            }
        }
    ],
    "resourceType": "Bundle",
    "type": "searchset",
    "timestamp": "2023-12-20T03:31:07.077Z",
    "total": 12,
    "link": [
        {
            "relation": "self",
            "url": "http://localhost:3000/4_0_0/Patient/patient1/$everything"
        }
    ]
}
