[
    {
        "resourceType": "Organization",
        "id": "StanfordMedicalSchool",
        "type": [
            {
                "coding": [
                    {
                        "system": "http://terminology.hl7.org/CodeSystem/organization-type",
                        "code": "edu"
                    }
                ]
            }
        ],
        "name": "Stanford Medical School"
    },
    {
        "resourceType": "Organization",
        "id": "AETNA",
        "identifier": [
            {
                "type": {
                    "coding": [
                        {
                            "code": "XV"
                        }
                    ]
                },
                "value": "AETNA"
            }
        ],
        "type": [
            {
                "coding": [
                    {
                        "system": "http://terminology.hl7.org/CodeSystem/organization-type",
                        "code": "ins"
                    }
                ]
            }
        ]
    },
    {
        "resourceType": "Organization",
        "id": "MWHC",
        "identifier": [
            {
                "type": {
                    "coding": [
                        {
                            "code": "FI"
                        }
                    ]
                },
                "value": "MWHC"
            }
        ],
        "type": [
            {
                "coding": [
                    {
                        "system": "http://terminology.hl7.org/CodeSystem/organization-type",
                        "code": "prov"
                    }
                ]
            }
        ],
        "alias": [
            "consumer_friendly_name"
        ],
        "partOf": {
            "reference": "Organization/MedStarMedicalGroup"
        }
    },
    {
        "resourceType": "Organization",
        "id": "MWHC_Department",
        "identifier": [
            {
                "type": {
                    "coding": [
                        {
                            "system": "http://terminology.hl7.org/CodeSystem/v2-0203",
                            "code": "FI",
                            "display": "Facility ID"
                        }
                    ]
                },
                "value": "scheduling_department_mnem"
            },
            {
                "type": {
                    "coding": [
                        {
                            "system": "http://terminology.hl7.org/CodeSystem/v2-0203",
                            "code": "XX",
                            "display": "Organization identifier"
                        }
                    ]
                },
                "value": "scheduling_department_number"
            }
        ],
        "type": [
            {
                "coding": [
                    {
                        "system": "http://terminology.hl7.org/CodeSystem/organization-type",
                        "code": "dept"
                    }
                ]
            }
        ],
        "name": "MWHC_Department",
        "partOf": {
            "reference": "Organization/MWHC"
        }
    },
    {
        "resourceType": "Organization",
        "id": "MedStarMedicalGroup",
        "type": [
            {
                "coding": [
                    {
                        "system": "http://terminology.hl7.org/CodeSystem/organization-type",
                        "code": "prov"
                    }
                ]
            }
        ],
        "name": "MedStar Medical Group"
    }
]