{
  "active": true,
  "address": [
    {
      "city": "CITY",
      "id": "81b7b1fd-ba35-42e2-a1c3-2114eac4619e",
      "line": [
        "1 STREET"
      ],
      "postalCode": "11111",
      "state": "SC"
    }
  ],
  "birthDate": "1970-01-01",
  "extension": [
    {
      "id": "userType",
      "url": "https://icanbwell.com/userType",
      "valueCodeableConcept": {
        "coding": [
          {
            "id": "d0366451-b257-53f5-bb44-962a89cbf23b",
            "code": "RX_AUTH",
            "display": "RX_AUTH",
            "system": "https://icanbwell.com/userType"
          }
        ],
        "id": "userType"
      }
    },
    {
      "id": "programs",
      "url": "https://icanbwell.com/programs",
      "valueCodeableConcept": {
        "coding": [
          {
            "id": "9ea836c6-2bac-571f-bdcf-7dda01cb3532",
            "code": "mywag,harmony",
            "display": "mywag,harmony",
            "system": "https://icanbwell.com/programs"
          }
        ],
        "id": "programs"
      }
    },
    {
      "id": "memberSince",
      "url": "https://icanbwell.com/memberSince",
      "valueCodeableConcept": {
        "coding": [
          {
            "id": "e51a277b-8ce1-5a4d-8fdf-e7fd8720b095",
            "code": "2021-04-19 18:16:05:995",
            "display": "2021-04-19 18:16:05:995",
            "system": "https://icanbwell.com/memberSince"
          }
        ],
        "id": "memberSince"
      }
    },
    {
      "id": "registrationDate",
      "url": "https://icanbwell.com/registrationDate",
      "valueCodeableConcept": {
        "coding": [
          {
            "id": "e10c1428-e143-5dff-83f4-35c6fd7ebde3",
            "code": "2021-04-19 18:16:05:995",
            "display": "2021-04-19 18:16:05:995",
            "system": "https://icanbwell.com/registrationDate"
          }
        ],
        "id": "registrationDate"
      }
    }
  ],
  "gender": "male",
  "id": "f924936d-e31e-45fe-a379-e13a9107f51a",
  "identifier": [
    {
      "system": "http://www.client.com/profileid",
      "type": {
        "coding": [
          {
            "id": "8a646969-9339-5f6c-b292-15c53a63f265",
            "code": "user-identifier",
            "system": "http://www.icanbwell.com/identifier-types"
          }
        ]
      },
      "value": "11111111111111"
    },
    {
      "id": "sourceId",
      "system": "https://www.icanbwell.com/sourceId",
      "value": "f924936d-e31e-45fe-a379-e13a9107f51a"
    },
    {
      "id": "uuid",
      "system": "https://www.icanbwell.com/uuid",
      "value": "f924936d-e31e-45fe-a379-e13a9107f51a"
    }
  ],
  "link": [
    {
      "id": "ce7ee76d-61c0-4696-8fb3-a2fedea9803c",
      "target": {
        "extension": [
          {
            "id": "sourceId",
            "url": "https://www.icanbwell.com/sourceId",
            "valueString": "Patient/4b596e92-2baa-44bd-bc79-77f9c07cb075"
          },
          {
            "id": "uuid",
            "url": "https://www.icanbwell.com/uuid",
            "valueString": "Patient/4b596e92-2baa-44bd-bc79-77f9c07cb075"
          },
          {
            "id": "sourceAssigningAuthority",
            "url": "https://www.icanbwell.com/sourceAssigningAuthority",
            "valueString": "bwell"
          }
        ],
        "reference": "Patient/4b596e92-2baa-44bd-bc79-77f9c07cb075"
      }
    },
    {
      "id": "6fa1f50d-9c25-45bc-aca9-7e29a82fa02c",
      "target": {
        "extension": [
          {
            "id": "sourceId",
            "url": "https://www.icanbwell.com/sourceId",
            "valueString": "Person/0457a3bf-cb48-4de0-ba20-fbb749d48a01"
          },
          {
            "id": "uuid",
            "url": "https://www.icanbwell.com/uuid",
            "valueString": "Person/0457a3bf-cb48-4de0-ba20-fbb749d48a01"
          },
          {
            "id": "sourceAssigningAuthority",
            "url": "https://www.icanbwell.com/sourceAssigningAuthority",
            "valueString": "bwell"
          }
        ],
        "reference": "Person/0457a3bf-cb48-4de0-ba20-fbb749d48a01"
      }
    },
    {
      "assurance": "level4",
      "id": "c59156ea-a482-4587-9d2e-ff6af8ee7b5e",
      "target": {
        "extension": [
          {
            "id": "sourceId",
            "url": "https://www.icanbwell.com/sourceId",
            "valueString": "Person/c59156ea-a482-4587-9d2e-ff6af8ee7b5e"
          },
          {
            "id": "uuid",
            "url": "https://www.icanbwell.com/uuid",
            "valueString": "Person/c59156ea-a482-4587-9d2e-ff6af8ee7b5e"
          },
          {
            "id": "sourceAssigningAuthority",
            "url": "https://www.icanbwell.com/sourceAssigningAuthority",
            "valueString": "bwell"
          }
        ],
        "reference": "Person/c59156ea-a482-4587-9d2e-ff6af8ee7b5e",
        "type": "Person"
      }
    },
    {
      "assurance": "level4",
      "id": "5a28d374-81e3-40a9-a1fb-929f830c2713",
      "target": {
        "extension": [
          {
            "id": "sourceId",
            "url": "https://www.icanbwell.com/sourceId",
            "valueString": "Person/5a28d374-81e3-40a9-a1fb-929f830c2713"
          },
          {
            "id": "uuid",
            "url": "https://www.icanbwell.com/uuid",
            "valueString": "Person/5a28d374-81e3-40a9-a1fb-929f830c2713"
          },
          {
            "id": "sourceAssigningAuthority",
            "url": "https://www.icanbwell.com/sourceAssigningAuthority",
            "valueString": "bwell"
          }
        ],
        "reference": "Person/5a28d374-81e3-40a9-a1fb-929f830c2713",
        "type": "Person"
      }
    },
    {
      "assurance": "level4",
      "id": "ced9f39b-971b-4a8b-88ca-13a87c02d754",
      "target": {
        "extension": [
          {
            "id": "sourceId",
            "url": "https://www.icanbwell.com/sourceId",
            "valueString": "Person/ced9f39b-971b-4a8b-88ca-13a87c02d754"
          },
          {
            "id": "uuid",
            "url": "https://www.icanbwell.com/uuid",
            "valueString": "Person/ced9f39b-971b-4a8b-88ca-13a87c02d754"
          },
          {
            "id": "sourceAssigningAuthority",
            "url": "https://www.icanbwell.com/sourceAssigningAuthority",
            "valueString": "bwell"
          }
        ],
        "reference": "Person/ced9f39b-971b-4a8b-88ca-13a87c02d754",
        "type": "Person"
      }
    }
  ],
  "meta": {
    "id": "bdbe5bf5-73d9-4d42-89b8-bd87d77bcb0d",
    "security": [
      {
        "code": "bwell",
        "system": "https://www.icanbwell.com/owner"
      },
      {
        "code": "bwell",
        "system": "https://www.icanbwell.com/access"
      },
      {
        "code": "bwell",
        "system": "https://www.icanbwell.com/sourceAssigningAuthority"
      }
    ],
    "source": "https://www.icanbwell.com",
    "versionId": "1"
  },
  "name": [
    {
      "family": "Family",
      "given": [
        "First"
      ]
    }
  ],
  "resourceType": "Person",
  "telecom": [
    {
      "system": "email",
      "value": "first@email.me"
    },
    {
      "system": "phone",
      "use": "mobile",
      "value": "1111111111"
    }
  ]
}
