{
  "entry": [
    {
      "id": "WPS-Claim-230916613368",
      "resource": {
        "contained": [
          {
            "active": true,
            "communication": [
              {
                "coding": [
                  {
                    "code": "en",
                    "system": "urn:ietf:bcp:47"
                  }
                ]
              }
            ],
            "gender": "unknown",
            "id": "1376656959",
            "identifier": [
              {
                "system": "http://hl7.org/fhir/sid/us-npi",
                "type": {
                  "coding": [
                    {
                      "code": "NPI",
                      "system": "http://terminology.hl7.org/CodeSystem/v2-0203"
                    }
                  ]
                },
                "use": "official",
                "value": "1376656959"
              },
              {
                "id": "sourceId",
                "system": "https://www.icanbwell.com/sourceId",
                "value": "1376656959"
              },
              {
                "id": "uuid",
                "system": "https://www.icanbwell.com/uuid",
                "value": "b46cbec7-d900-520d-a869-999c7f603f00"
              }
            ],
            "meta": {
              "security": [
                {
                  "code": "client",
                  "system": "https://www.icanbwell.com/access"
                },
                {
                  "code": "client",
                  "system": "https://www.icanbwell.com/owner"
                },
                {
                  "code": "client",
                  "system": "https://www.icanbwell.com/sourceAssigningAuthority"
                }
              ],
              "source": "client",
              "versionId": "1"
            },
            "name": [
              {
                "family": "NAJJAR  MD",
                "given": [
                  "SAMER S."
                ],
                "text": "SAMER S. NAJJAR  MD",
                "use": "usual"
              }
            ],
            "resourceType": "Practitioner",
            "telecom": [
              {
                "system": "email",
                "use": "work",
                "value": "foo@foo.com"
              }
            ]
          }
        ],
        "id": "WPS-Claim-230916613368",
        "identifier": [
          {
            "system": "https://www.wpshealth.com/",
            "type": {
              "coding": [
                {
                  "code": "claimnumber",
                  "display": "Claim Number",
                  "system": "http://terminology.hl7.org/CodeSystem/v2-0203"
                }
              ],
              "text": "Claim Number"
            },
            "value": "230916613368"
          },
          {
            "id": "sourceId",
            "system": "https://www.icanbwell.com/sourceId",
            "value": "WPS-Claim-230916613368"
          },
          {
            "id": "uuid",
            "system": "https://www.icanbwell.com/uuid",
            "value": "ed693162-ef65-567f-bbca-24ca8f01e0e2"
          }
        ],
        "insurance": [
          {
            "coverage": {
              "extension": [
                {
                  "id": "sourceId",
                  "url": "https://www.icanbwell.com/sourceId",
                  "valueString": "Coverage/WPS-6678928210"
                },
                {
                  "id": "uuid",
                  "url": "https://www.icanbwell.com/uuid",
                  "valueString": "Coverage/049d7971-64c2-54d2-81b0-f4fa8f6f5d68"
                },
                {
                  "id": "sourceAssigningAuthority",
                  "url": "https://www.icanbwell.com/sourceAssigningAuthority",
                  "valueString": "client"
                }
              ],
              "reference": "Coverage/WPS-6678928210"
            },
            "focal": true
          }
        ],
        "insurer": {
          "extension": [
            {
              "id": "sourceId",
              "url": "https://www.icanbwell.com/sourceId",
              "valueString": "Organization/WPS-Health"
            },
            {
              "id": "uuid",
              "url": "https://www.icanbwell.com/uuid",
              "valueString": "Organization/05da92c1-d004-5e5a-971a-e49cda65e672"
            },
            {
              "id": "sourceAssigningAuthority",
              "url": "https://www.icanbwell.com/sourceAssigningAuthority",
              "valueString": "client"
            }
          ],
          "reference": "Organization/WPS-Health"
        },
        "meta": {
          "security": [
            {
              "code": "client",
              "system": "https://www.icanbwell.com/access"
            },
            {
              "code": "client",
              "system": "https://www.icanbwell.com/owner"
            },
            {
              "code": "client",
              "system": "https://www.icanbwell.com/sourceAssigningAuthority"
            }
          ],
          "source": "https://www.wpshealth.com/medical_claims",
          "versionId": "1"
        },
        "outcome": "Complete",
        "patient": {
          "extension": [
            {
              "id": "sourceId",
              "url": "https://www.icanbwell.com/sourceId",
              "valueString": "Patient/WPS-6678928210"
            },
            {
              "id": "uuid",
              "url": "https://www.icanbwell.com/uuid",
              "valueString": "Patient/049d7971-64c2-54d2-81b0-f4fa8f6f5d68"
            },
            {
              "id": "sourceAssigningAuthority",
              "url": "https://www.icanbwell.com/sourceAssigningAuthority",
              "valueString": "client"
            }
          ],
          "reference": "Patient/WPS-6678928210"
        },
        "payee": {
          "type": {
            "coding": [
              {
                "code": "Provider",
                "system": "http://terminology.hl7.org/CodeSystem/payeetype"
              }
            ]
          }
        },
        "provider": {
          "extension": [
            {
              "id": "sourceId",
              "url": "https://www.icanbwell.com/sourceId",
              "valueString": "Practitioner/1376656959"
            },
            {
              "id": "uuid",
              "url": "https://www.icanbwell.com/uuid",
              "valueString": "Practitioner/b46cbec7-d900-520d-a869-999c7f603f00"
            },
            {
              "id": "sourceAssigningAuthority",
              "url": "https://www.icanbwell.com/sourceAssigningAuthority",
              "valueString": "client"
            }
          ],
          "reference": "Practitioner/1376656959"
        },
        "resourceType": "ExplanationOfBenefit",
        "status": "active",
        "type": {
          "coding": [
            {
              "code": "Institutional",
              "system": "https://hl7.org/FHIR/codesystem-claim-type.html"
            }
          ],
          "text": "Claim Type"
        },
        "use": "Claim"
      }
    },
    {
      "id": "WPS-Claim-230916613369",
      "resource": {
        "contained": [
          {
            "id": "1407857790",
            "identifier": [
              {
                "id": "sourceId",
                "system": "https://www.icanbwell.com/sourceId",
                "value": "1407857790"
              },
              {
                "id": "uuid",
                "system": "https://www.icanbwell.com/uuid",
                "value": "b65f9bda-7dc9-562f-b702-d4c54decd711"
              }
            ],
            "meta": {
              "security": [
                {
                  "code": "client",
                  "system": "https://www.icanbwell.com/access"
                },
                {
                  "code": "client",
                  "system": "https://www.icanbwell.com/owner"
                },
                {
                  "code": "client",
                  "system": "https://www.icanbwell.com/sourceAssigningAuthority"
                }
              ],
              "source": "client",
              "versionId": "1"
            },
            "name": "Client Medical Group",
            "resourceType": "Organization",
            "type": [
              {
                "coding": [
                  {
                    "code": "prov",
                    "display": "Healthcare Provider",
                    "system": "http://terminology.hl7.org/CodeSystem/organization-type"
                  }
                ],
                "text": "Healthcare Organization"
              }
            ]
          }
        ],
        "id": "WPS-Claim-230916613369",
        "identifier": [
          {
            "system": "https://www.wpshealth.com/",
            "type": {
              "coding": [
                {
                  "code": "claimnumber",
                  "display": "Claim Number",
                  "system": "http://terminology.hl7.org/CodeSystem/v2-0203"
                }
              ],
              "text": "Claim Number"
            },
            "value": "230916613369"
          },
          {
            "id": "sourceId",
            "system": "https://www.icanbwell.com/sourceId",
            "value": "WPS-Claim-230916613369"
          },
          {
            "id": "uuid",
            "system": "https://www.icanbwell.com/uuid",
            "value": "2b2ea9d1-73b9-58fe-8572-9f757ada9769"
          }
        ],
        "insurance": [
          {
            "coverage": {
              "extension": [
                {
                  "id": "sourceId",
                  "url": "https://www.icanbwell.com/sourceId",
                  "valueString": "Coverage/WPS-6678928210"
                },
                {
                  "id": "uuid",
                  "url": "https://www.icanbwell.com/uuid",
                  "valueString": "Coverage/049d7971-64c2-54d2-81b0-f4fa8f6f5d68"
                },
                {
                  "id": "sourceAssigningAuthority",
                  "url": "https://www.icanbwell.com/sourceAssigningAuthority",
                  "valueString": "client"
                }
              ],
              "reference": "Coverage/WPS-6678928210"
            },
            "focal": true
          }
        ],
        "insurer": {
          "extension": [
            {
              "id": "sourceId",
              "url": "https://www.icanbwell.com/sourceId",
              "valueString": "Organization/WPS-Health"
            },
            {
              "id": "uuid",
              "url": "https://www.icanbwell.com/uuid",
              "valueString": "Organization/05da92c1-d004-5e5a-971a-e49cda65e672"
            },
            {
              "id": "sourceAssigningAuthority",
              "url": "https://www.icanbwell.com/sourceAssigningAuthority",
              "valueString": "client"
            }
          ],
          "reference": "Organization/WPS-Health"
        },
        "meta": {
          "security": [
            {
              "code": "client",
              "system": "https://www.icanbwell.com/access"
            },
            {
              "code": "client",
              "system": "https://www.icanbwell.com/owner"
            },
            {
              "code": "client",
              "system": "https://www.icanbwell.com/sourceAssigningAuthority"
            }
          ],
          "source": "https://www.wpshealth.com/medical_claims",
          "versionId": "1"
        },
        "outcome": "Complete",
        "patient": {
          "extension": [
            {
              "id": "sourceId",
              "url": "https://www.icanbwell.com/sourceId",
              "valueString": "Patient/WPS-0559166162"
            },
            {
              "id": "uuid",
              "url": "https://www.icanbwell.com/uuid",
              "valueString": "Patient/88d5028b-42d5-569b-8b3c-beb24c00c6c4"
            },
            {
              "id": "sourceAssigningAuthority",
              "url": "https://www.icanbwell.com/sourceAssigningAuthority",
              "valueString": "client"
            }
          ],
          "reference": "Patient/WPS-0559166162"
        },
        "provider": {
          "extension": [
            {
              "id": "sourceId",
              "url": "https://www.icanbwell.com/sourceId",
              "valueString": "Organization/1407857790"
            },
            {
              "id": "uuid",
              "url": "https://www.icanbwell.com/uuid",
              "valueString": "Organization/b65f9bda-7dc9-562f-b702-d4c54decd711"
            },
            {
              "id": "sourceAssigningAuthority",
              "url": "https://www.icanbwell.com/sourceAssigningAuthority",
              "valueString": "client"
            }
          ],
          "reference": "Organization/1407857790"
        },
        "resourceType": "ExplanationOfBenefit",
        "status": "active",
        "type": {
          "coding": [
            {
              "code": "Institutional",
              "system": "https://hl7.org/FHIR/codesystem-claim-type.html"
            }
          ],
          "text": "Claim Type"
        },
        "use": "Claim"
      }
    }
  ],
  "resourceType": "Bundle",
  "total": 2,
  "type": "searchset"
}
