{
  "entry": [
    {
      "id": "personTopLevel",
      "resource": {
        "active": true,
        "address": [
          {
            "city": "Austin",
            "country": "Some country",
            "id": "2011-10-05T14:48:00.000Z",
            "line": [
              "301 W, in a yellow submarine"
            ],
            "period": {
              "id": "2011-10-05T14:48:00.000Z"
            },
            "postalCode": "78701",
            "state": "Texas"
          }
        ],
        "contained": [
          {
            "category": [
              {
                "coding": [
                  {
                    "code": "encounter-diagnosis",
                    "system": "http://terminology.hl7.org/CodeSystem/condition-category"
                  }
                ]
              }
            ],
            "code": {
              "coding": [
                {
                  "code": "I509",
                  "display": "Heart failure, unspecified",
                  "system": "http://hl7.org/fhir/sid/icd-10-cm"
                }
              ]
            },
            "encounter": {
              "extension": [
                {
                  "id": "sourceId",
                  "url": "https://www.icanbwell.com/sourceId",
                  "valueString": "Encounter/8b063166401978436de7cb5dc0e998a50d38b786e99e5f5ea61bb475e1373a9"
                },
                {
                  "id": "uuid",
                  "url": "https://www.icanbwell.com/uuid",
                  "valueString": "Encounter/fec031dc-d4f9-55a6-8858-7ae5f131c45c"
                },
                {
                  "id": "sourceAssigningAuthority",
                  "url": "https://www.icanbwell.com/sourceAssigningAuthority",
                  "valueString": "healthsystem1"
                }
              ],
              "reference": "Encounter/8b063166401978436de7cb5dc0e998a50d38b786e99e5f5ea61bb475e1373a9"
            },
            "id": "14736deef3663a7946a8fde33e67c50d03d903cdd1a46c36a426c47a24fb71f",
            "identifier": [
              {
                "id": "sourceId",
                "system": "https://www.icanbwell.com/sourceId",
                "value": "14736deef3663a7946a8fde33e67c50d03d903cdd1a46c36a426c47a24fb71f"
              },
              {
                "id": "uuid",
                "system": "https://www.icanbwell.com/uuid",
                "value": "e73357e5-b948-57a6-8a04-269ff833118e"
              }
            ],
            "meta": {
              "security": [
                {
                  "code": "healthsystem1",
                  "system": "https://www.icanbwell.com/owner"
                },
                {
                  "code": "healthsystem1",
                  "system": "https://www.icanbwell.com/access"
                },
                {
                  "code": "B",
                  "system": "https://www.icanbwell.com/vendor"
                },
                {
                  "code": "B",
                  "system": "https://www.icanbwell.com/access"
                },
                {
                  "code": "healthsystem1",
                  "system": "https://www.icanbwell.com/sourceAssigningAuthority"
                }
              ],
              "source": "/patients",
              "versionId": "1"
            },
            "onsetDateTime": "2021-09-08T00:00:00+00:00",
            "recordedDate": "2023-01-21T08:00:00+00:00",
            "resourceType": "Condition",
            "subject": {
              "extension": [
                {
                  "id": "sourceId",
                  "url": "https://www.icanbwell.com/sourceId",
                  "valueString": "Patient/patient1"
                },
                {
                  "id": "uuid",
                  "url": "https://www.icanbwell.com/uuid",
                  "valueString": "Patient/24a5930e-11b4-5525-b482-669174917044"
                },
                {
                  "id": "sourceAssigningAuthority",
                  "url": "https://www.icanbwell.com/sourceAssigningAuthority",
                  "valueString": "healthsystem1"
                }
              ],
              "reference": "Patient/patient1"
            }
          },
          {
            "category": [
              {
                "coding": [
                  {
                    "code": "encounter-diagnosis",
                    "system": "http://terminology.hl7.org/CodeSystem/condition-category"
                  }
                ]
              }
            ],
            "code": {
              "coding": [
                {
                  "code": "J45909",
                  "display": "Unspecified asthma, uncomplicated",
                  "system": "http://hl7.org/fhir/sid/icd-10-cm"
                }
              ]
            },
            "encounter": {
              "extension": [
                {
                  "id": "sourceId",
                  "url": "https://www.icanbwell.com/sourceId",
                  "valueString": "Encounter/16846b8f30f338549c1bcda50335cfc352429282c17e1c58b8c94937a1793e2"
                },
                {
                  "id": "uuid",
                  "url": "https://www.icanbwell.com/uuid",
                  "valueString": "Encounter/f8bbad9a-b63c-53a8-aae6-ca3e049affb7"
                },
                {
                  "id": "sourceAssigningAuthority",
                  "url": "https://www.icanbwell.com/sourceAssigningAuthority",
                  "valueString": "healthsystem1"
                }
              ],
              "reference": "Encounter/16846b8f30f338549c1bcda50335cfc352429282c17e1c58b8c94937a1793e2"
            },
            "id": "2169a56959b45ca06d27923fe76070e5cdd27f2ad07b370c559ab4300a2774e",
            "identifier": [
              {
                "id": "sourceId",
                "system": "https://www.icanbwell.com/sourceId",
                "value": "2169a56959b45ca06d27923fe76070e5cdd27f2ad07b370c559ab4300a2774e"
              },
              {
                "id": "uuid",
                "system": "https://www.icanbwell.com/uuid",
                "value": "07735afb-2340-5e33-ba9a-2b280043a5eb"
              }
            ],
            "meta": {
              "security": [
                {
                  "code": "healthsystem1",
                  "system": "https://www.icanbwell.com/owner"
                },
                {
                  "code": "healthsystem1",
                  "system": "https://www.icanbwell.com/access"
                },
                {
                  "code": "B",
                  "system": "https://www.icanbwell.com/vendor"
                },
                {
                  "code": "B",
                  "system": "https://www.icanbwell.com/access"
                },
                {
                  "code": "healthsystem1",
                  "system": "https://www.icanbwell.com/sourceAssigningAuthority"
                }
              ],
              "source": "/patients",
              "versionId": "1"
            },
            "onsetDateTime": "2023-06-13T00:00:00+00:00",
            "recordedDate": "2023-06-14T07:00:00+00:00",
            "resourceType": "Condition",
            "subject": {
              "extension": [
                {
                  "id": "sourceId",
                  "url": "https://www.icanbwell.com/sourceId",
                  "valueString": "Patient/patient1"
                },
                {
                  "id": "uuid",
                  "url": "https://www.icanbwell.com/uuid",
                  "valueString": "Patient/24a5930e-11b4-5525-b482-669174917044"
                },
                {
                  "id": "sourceAssigningAuthority",
                  "url": "https://www.icanbwell.com/sourceAssigningAuthority",
                  "valueString": "healthsystem1"
                }
              ],
              "reference": "Patient/patient1"
            }
          },
          {
            "code": {
              "coding": [
                {
                  "code": "BMI001",
                  "system": "http://www.icanbwell.com/cql/library"
                },
                {
                  "code": "1.0.0",
                  "system": "http://www.icanbwell.com/cql/libraryVersion"
                },
                {
                  "code": "InAgeCohort",
                  "system": "http://www.icanbwell.com/cql/rule"
                }
              ]
            },
            "effectivePeriod": {
              "end": "2021-12-31T00:00:00.000Z",
              "start": "2021-01-01T00:00:00.000Z"
            },
            "id": "2354-InAgeCohort",
            "identifier": [
              {
                "id": "sourceId",
                "system": "https://www.icanbwell.com/sourceId",
                "value": "2354-InAgeCohort"
              },
              {
                "id": "uuid",
                "system": "https://www.icanbwell.com/uuid",
                "value": "61886699-c643-5e3b-a074-569e4c43bddf"
              }
            ],
            "issued": "2021-01-01T12:00:00Z",
            "meta": {
              "security": [
                {
                  "code": "healthsystem1",
                  "system": "https://www.icanbwell.com/owner"
                },
                {
                  "code": "healthsystem1",
                  "system": "https://www.icanbwell.com/access"
                },
                {
                  "code": "B",
                  "system": "https://www.icanbwell.com/vendor"
                },
                {
                  "code": "B",
                  "system": "https://www.icanbwell.com/access"
                },
                {
                  "code": "healthsystem1",
                  "system": "https://www.icanbwell.com/sourceAssigningAuthority"
                }
              ],
              "source": "/patients",
              "versionId": "1"
            },
            "resourceType": "Observation",
            "status": "final",
            "subject": {
              "extension": [
                {
                  "id": "sourceId",
                  "url": "https://www.icanbwell.com/sourceId",
                  "valueString": "Patient/patient1"
                },
                {
                  "id": "uuid",
                  "url": "https://www.icanbwell.com/uuid",
                  "valueString": "Patient/24a5930e-11b4-5525-b482-669174917044"
                },
                {
                  "id": "sourceAssigningAuthority",
                  "url": "https://www.icanbwell.com/sourceAssigningAuthority",
                  "valueString": "healthsystem1"
                }
              ],
              "reference": "Patient/patient1"
            },
            "valueBoolean": false
          },
          {
            "birthDate": "2017-01-01",
            "gender": "female",
            "id": "patient1",
            "identifier": [
              {
                "id": "sourceId",
                "system": "https://www.icanbwell.com/sourceId",
                "value": "patient1"
              },
              {
                "id": "uuid",
                "system": "https://www.icanbwell.com/uuid",
                "value": "24a5930e-11b4-5525-b482-669174917044"
              }
            ],
            "meta": {
              "security": [
                {
                  "code": "healthsystem1",
                  "system": "https://www.icanbwell.com/access"
                },
                {
                  "code": "healthsystem1",
                  "system": "https://www.icanbwell.com/owner"
                },
                {
                  "code": "healthsystem1",
                  "system": "https://www.icanbwell.com/sourceAssigningAuthority"
                }
              ],
              "source": "http://healthsystem1health.org/provider",
              "versionId": "1"
            },
            "name": [
              {
                "family": "PATIENT1",
                "given": [
                  "SHYLA"
                ],
                "text": "t",
                "use": "usual"
              }
            ],
            "resourceType": "Patient"
          },
          {
            "birthDate": "2017-01-01",
            "gender": "male",
            "id": "person1",
            "identifier": [
              {
                "id": "sourceId",
                "system": "https://www.icanbwell.com/sourceId",
                "value": "person1"
              },
              {
                "id": "uuid",
                "system": "https://www.icanbwell.com/uuid",
                "value": "cb910ded-67db-5c75-b62d-1d1a545c3e56"
              }
            ],
            "link": [
              {
                "assurance": "level4",
                "target": {
                  "extension": [
                    {
                      "id": "sourceId",
                      "url": "https://www.icanbwell.com/sourceId",
                      "valueString": "Patient/patient1"
                    },
                    {
                      "id": "uuid",
                      "url": "https://www.icanbwell.com/uuid",
                      "valueString": "Patient/6b4cd535-4038-5da7-9c1e-43b5a05c793b"
                    },
                    {
                      "id": "sourceAssigningAuthority",
                      "url": "https://www.icanbwell.com/sourceAssigningAuthority",
                      "valueString": "medstar"
                    }
                  ],
                  "reference": "Patient/patient1",
                  "type": "Patient"
                }
              }
            ],
            "meta": {
              "security": [
                {
                  "code": "medstar",
                  "system": "https://www.icanbwell.com/access"
                },
                {
                  "code": "medstar",
                  "system": "https://www.icanbwell.com/owner"
                },
                {
                  "code": "medstar",
                  "system": "https://www.icanbwell.com/sourceAssigningAuthority"
                }
              ],
              "source": "medstar",
              "versionId": "1"
            },
            "name": [
              {
                "family": "PATIENT2",
                "given": [
                  "OTHER"
                ],
                "text": "t",
                "use": "usual"
              }
            ],
            "resourceType": "Person"
          },
          {
            "active": true,
            "address": [
              {
                "city": "Austin",
                "country": "Some country",
                "id": "2011-10-05T14:48:00.000Z",
                "line": [
                  "301 W, in a yellow submarine"
                ],
                "period": {
                  "id": "2011-10-05T14:48:00.000Z"
                },
                "postalCode": "78701",
                "state": "Texas"
              }
            ],
            "gender": "male",
            "id": "person2",
            "identifier": [
              {
                "system": "http://www.walgreens.com/profileid",
                "value": "1000000-a-02"
              },
              {
                "id": "sourceId",
                "system": "https://www.icanbwell.com/sourceId",
                "value": "person2"
              },
              {
                "id": "uuid",
                "system": "https://www.icanbwell.com/uuid",
                "value": "0eb80391-0f61-5ce6-b221-a5428f2f38a7"
              }
            ],
            "link": [
              {
                "assurance": "level4",
                "id": "8175a01c-41a3-44f7-9a18-db5077c674fb",
                "target": {
                  "extension": [
                    {
                      "id": "sourceId",
                      "url": "https://www.icanbwell.com/sourceId",
                      "valueString": "Patient/patient1"
                    },
                    {
                      "id": "uuid",
                      "url": "https://www.icanbwell.com/uuid",
                      "valueString": "Patient/b1b84ea6-c8e3-52d8-9759-ebe994c1e89d"
                    },
                    {
                      "id": "sourceAssigningAuthority",
                      "url": "https://www.icanbwell.com/sourceAssigningAuthority",
                      "valueString": "bwell"
                    }
                  ],
                  "reference": "Patient/patient1"
                }
              },
              {
                "assurance": "level4",
                "id": "4223ad68-2cd2-482f-8d47-fc09be3ddbc1",
                "target": {
                  "extension": [
                    {
                      "id": "sourceId",
                      "url": "https://www.icanbwell.com/sourceId",
                      "valueString": "Patient/patient2"
                    },
                    {
                      "id": "uuid",
                      "url": "https://www.icanbwell.com/uuid",
                      "valueString": "Patient/90d14c10-b08a-5977-8aaf-4252355ac169"
                    },
                    {
                      "id": "sourceAssigningAuthority",
                      "url": "https://www.icanbwell.com/sourceAssigningAuthority",
                      "valueString": "bwell"
                    }
                  ],
                  "reference": "Patient/patient2"
                }
              }
            ],
            "meta": {
              "id": "ec82e61a-f8b1-43c5-922e-f6e2060da170",
              "security": [
                {
                  "code": "bwell",
                  "system": "https://www.icanbwell.com/owner"
                },
                {
                  "code": "bwell",
                  "system": "https://www.icanbwell.com/access"
                },
                {
                  "code": "bwell",
                  "system": "https://www.icanbwell.com/sourceAssigningAuthority"
                }
              ],
              "source": "https://www.icanbwell.com",
              "versionId": "1"
            },
            "name": [
              {
                "family": "Azamar",
                "given": [
                  "Daniel"
                ],
                "use": "nickname"
              }
            ],
            "resourceType": "Person",
            "telecom": [
              {
                "id": "2011-10-05T14:48:00.000Z",
                "system": "phone",
                "use": "home",
                "value": "+52123456789"
              }
            ]
          },
          {
            "active": true,
            "address": [
              {
                "city": "Austin",
                "country": "Some country",
                "id": "2011-10-05T14:48:00.000Z",
                "line": [
                  "301 W, in a yellow submarine"
                ],
                "period": {
                  "id": "2011-10-05T14:48:00.000Z"
                },
                "postalCode": "78701",
                "state": "Texas"
              }
            ],
            "gender": "male",
            "id": "personTopLevel",
            "identifier": [
              {
                "system": "http://www.walgreens.com/profileid",
                "value": "1000000-a-02"
              },
              {
                "id": "sourceId",
                "system": "https://www.icanbwell.com/sourceId",
                "value": "personTopLevel"
              },
              {
                "id": "uuid",
                "system": "https://www.icanbwell.com/uuid",
                "value": "9168d18f-8ad4-5f07-8ace-dd2979455b4e"
              }
            ],
            "link": [
              {
                "assurance": "level4",
                "id": "8175a01c-41a3-44f7-9a18-db5077c674fb",
                "target": {
                  "extension": [
                    {
                      "id": "sourceId",
                      "url": "https://www.icanbwell.com/sourceId",
                      "valueString": "Patient/patient1"
                    },
                    {
                      "id": "uuid",
                      "url": "https://www.icanbwell.com/uuid",
                      "valueString": "Patient/b1b84ea6-c8e3-52d8-9759-ebe994c1e89d"
                    },
                    {
                      "id": "sourceAssigningAuthority",
                      "url": "https://www.icanbwell.com/sourceAssigningAuthority",
                      "valueString": "bwell"
                    }
                  ],
                  "reference": "Patient/patient1"
                }
              },
              {
                "assurance": "level4",
                "id": "4223ad68-2cd2-482f-8d47-fc09be3ddbc1",
                "target": {
                  "extension": [
                    {
                      "id": "sourceId",
                      "url": "https://www.icanbwell.com/sourceId",
                      "valueString": "Person/person1"
                    },
                    {
                      "id": "uuid",
                      "url": "https://www.icanbwell.com/uuid",
                      "valueString": "Person/0b2ad38a-20bc-5cf5-9739-13f242b05892"
                    },
                    {
                      "id": "sourceAssigningAuthority",
                      "url": "https://www.icanbwell.com/sourceAssigningAuthority",
                      "valueString": "bwell"
                    }
                  ],
                  "reference": "Person/person1"
                }
              }
            ],
            "meta": {
              "id": "ec82e61a-f8b1-43c5-922e-f6e2060da170",
              "security": [
                {
                  "code": "bwell",
                  "system": "https://www.icanbwell.com/owner"
                },
                {
                  "code": "bwell",
                  "system": "https://www.icanbwell.com/access"
                },
                {
                  "code": "bwell",
                  "system": "https://www.icanbwell.com/sourceAssigningAuthority"
                }
              ],
              "source": "https://www.icanbwell.com",
              "versionId": "1"
            },
            "name": [
              {
                "family": "Azamar",
                "given": [
                  "Daniel"
                ],
                "use": "nickname"
              }
            ],
            "resourceType": "Person",
            "telecom": [
              {
                "id": "2011-10-05T14:48:00.000Z",
                "system": "phone",
                "use": "home",
                "value": "+52123456789"
              }
            ]
          }
        ],
        "gender": "male",
        "id": "personTopLevel",
        "identifier": [
          {
            "system": "http://www.walgreens.com/profileid",
            "value": "1000000-a-02"
          },
          {
            "id": "sourceId",
            "system": "https://www.icanbwell.com/sourceId",
            "value": "personTopLevel"
          },
          {
            "id": "uuid",
            "system": "https://www.icanbwell.com/uuid",
            "value": "9168d18f-8ad4-5f07-8ace-dd2979455b4e"
          }
        ],
        "link": [
          {
            "assurance": "level4",
            "id": "8175a01c-41a3-44f7-9a18-db5077c674fb",
            "target": {
              "extension": [
                {
                  "id": "sourceId",
                  "url": "https://www.icanbwell.com/sourceId",
                  "valueString": "Patient/patient1"
                },
                {
                  "id": "uuid",
                  "url": "https://www.icanbwell.com/uuid",
                  "valueString": "Patient/b1b84ea6-c8e3-52d8-9759-ebe994c1e89d"
                },
                {
                  "id": "sourceAssigningAuthority",
                  "url": "https://www.icanbwell.com/sourceAssigningAuthority",
                  "valueString": "bwell"
                }
              ],
              "reference": "Patient/patient1"
            }
          },
          {
            "assurance": "level4",
            "id": "4223ad68-2cd2-482f-8d47-fc09be3ddbc1",
            "target": {
              "extension": [
                {
                  "id": "sourceId",
                  "url": "https://www.icanbwell.com/sourceId",
                  "valueString": "Person/person1"
                },
                {
                  "id": "uuid",
                  "url": "https://www.icanbwell.com/uuid",
                  "valueString": "Person/0b2ad38a-20bc-5cf5-9739-13f242b05892"
                },
                {
                  "id": "sourceAssigningAuthority",
                  "url": "https://www.icanbwell.com/sourceAssigningAuthority",
                  "valueString": "bwell"
                }
              ],
              "reference": "Person/person1"
            }
          }
        ],
        "meta": {
          "id": "ec82e61a-f8b1-43c5-922e-f6e2060da170",
          "security": [
            {
              "code": "bwell",
              "system": "https://www.icanbwell.com/owner"
            },
            {
              "code": "bwell",
              "system": "https://www.icanbwell.com/access"
            },
            {
              "code": "bwell",
              "system": "https://www.icanbwell.com/sourceAssigningAuthority"
            }
          ],
          "source": "https://www.icanbwell.com",
          "versionId": "1"
        },
        "name": [
          {
            "family": "Azamar",
            "given": [
              "Daniel"
            ],
            "use": "nickname"
          }
        ],
        "resourceType": "Person",
        "telecom": [
          {
            "id": "2011-10-05T14:48:00.000Z",
            "system": "phone",
            "use": "home",
            "value": "+52123456789"
          }
        ]
      }
    }
  ],
  "resourceType": "Bundle",
  "total": 1,
  "type": "searchset"
}
