{
  "entry": [
    {
      "id": "002126287fbd412d8b52115e48edbd4c",
      "resource": {
        "address": [
          {
            "city": "Austin",
            "line": [
              "301 W. Second St., Austin, Texas 78701"
            ],
            "postalCode": "78701",
            "state": "Texas"
          }
        ],
        "birthDate": "1996-01-01",
        "contained": [
          {
            "address": [
              {
                "city": "Austin",
                "line": [
                  "801 W 5th St"
                ],
                "postalCode": "78703",
                "state": "TX"
              }
            ],
            "birthDate": "1991-09-10",
            "gender": "male",
            "id": "0318898e65044aaab3115d048d44c434",
            "identifier": [
              {
                "system": "https://www.icanbwell.com",
                "type": {
                  "coding": [
                    {
                      "code": "FHIR_id",
                      "display": "bWell FHIR id",
                      "system": "https://www.icanbwell.com"
                    }
                  ]
                },
                "value": "bwell-e4c2a7117b1a455bb7824f8929e80826"
              },
              {
                "id": "sourceId",
                "system": "https://www.icanbwell.com/sourceId",
                "value": "0318898e65044aaab3115d048d44c434"
              },
              {
                "id": "uuid",
                "system": "https://www.icanbwell.com/uuid",
                "value": "3a088efc-f7ac-5906-8e32-0d2ed29f7051"
              }
            ],
            "meta": {
              "profile": [
                "http://hl7.org/fhir/us/core/StructureDefinition/us-core-person"
              ],
              "security": [
                {
                  "code": "healthsystem1",
                  "system": "https://www.icanbwell.com/access"
                },
                {
                  "code": "healthsystem1",
                  "system": "https://www.icanbwell.com/owner"
                },
                {
                  "code": "healthsystem1",
                  "system": "https://www.icanbwell.com/sourceAssigningAuthority"
                }
              ],
              "versionId": "1"
            },
            "name": [
              {
                "family": "qbebhcwilt",
                "given": [
                  "Sweetie"
                ],
                "use": "official"
              }
            ],
            "resourceType": "Patient",
            "telecom": [
              {
                "system": "phone",
                "use": "home",
                "value": "+15125550156"
              },
              {
                "system": "email",
                "use": "home",
                "value": "bwell+86856qwbfu@mailinator.com"
              }
            ]
          },
          {
            "address": [
              {
                "city": "Austin",
                "line": [
                  "301 W. Second St., Austin, Texas 78701"
                ],
                "postalCode": "78701",
                "state": "Texas"
              }
            ],
            "birthDate": "1996-01-01",
            "gender": "male",
            "id": "aab16fc4c5914e38b489bcd096369623",
            "identifier": [
              {
                "system": "https://www.icanbwell.com",
                "type": {
                  "coding": [
                    {
                      "code": "FHIR_id",
                      "display": "bWell FHIR id",
                      "system": "https://www.icanbwell.com"
                    }
                  ]
                },
                "value": "bwell-aa3549c799274219a16d5dcb403cc0e4"
              },
              {
                "system": "https://www.icanbwell.com",
                "type": {
                  "coding": [
                    {
                      "code": "user_id",
                      "display": "bWell App user_id",
                      "system": "https://www.icanbwell.com"
                    }
                  ]
                },
                "value": "587921"
              },
              {
                "system": "https://www.icanbwell.com",
                "type": {
                  "coding": [
                    {
                      "code": "member_id",
                      "display": "bWell App member_id",
                      "system": "https://www.icanbwell.com"
                    }
                  ]
                },
                "value": "QWERTY"
              },
              {
                "id": "sourceId",
                "system": "https://www.icanbwell.com/sourceId",
                "value": "aab16fc4c5914e38b489bcd096369623"
              },
              {
                "id": "uuid",
                "system": "https://www.icanbwell.com/uuid",
                "value": "b2ee7ab4-c3b1-50af-8017-dbecc28177bf"
              }
            ],
            "meta": {
              "profile": [
                "http://hl7.org/fhir/us/core/StructureDefinition/us-core-person"
              ],
              "security": [
                {
                  "code": "healthsystem2",
                  "system": "https://www.icanbwell.com/access"
                },
                {
                  "code": "healthsystem2",
                  "system": "https://www.icanbwell.com/owner"
                },
                {
                  "code": "healthsystem2",
                  "system": "https://www.icanbwell.com/sourceAssigningAuthority"
                }
              ],
              "versionId": "1"
            },
            "name": [
              {
                "family": "Family",
                "given": [
                  "Given"
                ],
                "use": "official"
              }
            ],
            "resourceType": "Patient",
            "telecom": [
              {
                "system": "phone",
                "use": "home",
                "value": "+919999999999"
              },
              {
                "system": "email",
                "use": "home",
                "value": "foo@bar.com"
              }
            ]
          },
          {
            "code": {
              "coding": [
                {
                  "code": "healthActivity",
                  "system": "https://www.icanbwell.com/activityType"
                },
                {
                  "code": "Prevention",
                  "system": "https://www.icanbwell.com/activityClass"
                }
              ]
            },
            "extension": [
              {
                "url": "https://www.icanbwell.com/activityCompletionMethod",
                "valueString": "Data"
              },
              {
                "url": "https://www.icanbwell.com/activityRedirectUrl",
                "valueString": "/invite-family-member/"
              },
              {
                "url": "https://www.icanbwell.com/activityContentId",
                "valueString": "b6f5f87c-327b-11ed-a8db-666c69ee66a3"
              },
              {
                "url": "https://www.icanbwell.com/activityPoints",
                "valueInteger": 200
              }
            ],
            "for": {
              "display": "Himanshu",
              "extension": [
                {
                  "id": "sourceId",
                  "url": "https://www.icanbwell.com/sourceId",
                  "valueString": "Patient/aab16fc4c5914e38b489bcd096369623"
                },
                {
                  "id": "uuid",
                  "url": "https://www.icanbwell.com/uuid",
                  "valueString": "Patient/5934a6f3-c41f-5aa3-aac4-b96ec98d760a"
                },
                {
                  "id": "sourceAssigningAuthority",
                  "url": "https://www.icanbwell.com/sourceAssigningAuthority",
                  "valueString": "bwell"
                }
              ],
              "reference": "Patient/aab16fc4c5914e38b489bcd096369623"
            },
            "id": "615221a8-2e14-4218-a38e-f83a8dbfd8c0",
            "identifier": [
              {
                "system": "https://www.icanbwell.com/activityName",
                "value": "Get Out and Move"
              },
              {
                "id": "sourceId",
                "system": "https://www.icanbwell.com/sourceId",
                "value": "615221a8-2e14-4218-a38e-f83a8dbfd8c0"
              },
              {
                "id": "uuid",
                "system": "https://www.icanbwell.com/uuid",
                "value": "615221a8-2e14-4218-a38e-f83a8dbfd8c0"
              }
            ],
            "instantiatesCanonical": "https://fhir.dev-ue1.bwell.zone/4_0_0/ActivityDefinition/34ad8566-9e53-4d2e-9049-d0dd8c46e904",
            "meta": {
              "security": [
                {
                  "code": "bwell",
                  "system": "https://www.icanbwell.com/access"
                },
                {
                  "code": "bwell",
                  "system": "https://www.icanbwell.com/owner"
                },
                {
                  "code": "bwell",
                  "system": "https://www.icanbwell.com/sourceAssigningAuthority"
                }
              ],
              "versionId": "1"
            },
            "resourceType": "Task",
            "status": "ready"
          },
          {
            "for": {
              "extension": [
                {
                  "id": "sourceId",
                  "url": "https://www.icanbwell.com/sourceId",
                  "valueString": "Patient/0318898e65044aaab3115d048d44c434"
                },
                {
                  "id": "uuid",
                  "url": "https://www.icanbwell.com/uuid",
                  "valueString": "Patient/c9677035-b3bc-5935-b2b4-7714ad521c0c"
                },
                {
                  "id": "sourceAssigningAuthority",
                  "url": "https://www.icanbwell.com/sourceAssigningAuthority",
                  "valueString": "bwell"
                }
              ],
              "reference": "Patient/0318898e65044aaab3115d048d44c434",
              "type": "Patient"
            },
            "id": "8f9cd53e-6445-4003-8caf-569487868ce9",
            "identifier": [
              {
                "system": "https://www.icanbwell.com/legacyId",
                "use": "old",
                "value": "98548363"
              },
              {
                "id": "sourceId",
                "system": "https://www.icanbwell.com/sourceId",
                "value": "8f9cd53e-6445-4003-8caf-569487868ce9"
              },
              {
                "id": "uuid",
                "system": "https://www.icanbwell.com/uuid",
                "value": "8f9cd53e-6445-4003-8caf-569487868ce9"
              }
            ],
            "instantiatesCanonical": "https://fhir.dev.bwell.zone/4_0_0/ActivityDefinition/d4ded4d6-30a5-448b-9083-880581df8b00",
            "meta": {
              "security": [
                {
                  "code": "bwell",
                  "system": "https://www.icanbwell.com/owner"
                },
                {
                  "code": "bwell",
                  "system": "https://www.icanbwell.com/access"
                },
                {
                  "code": "bwell",
                  "system": "https://www.icanbwell.com/sourceAssigningAuthority"
                }
              ],
              "versionId": "1"
            },
            "resourceType": "Task",
            "status": "cancelled"
          },
          {
            "code": {
              "coding": [
                {
                  "code": "healthActivity",
                  "system": "https://www.icanbwell.com/activityType"
                },
                {
                  "code": "Prevention",
                  "system": "https://www.icanbwell.com/activityClass"
                }
              ]
            },
            "extension": [
              {
                "url": "https://www.icanbwell.com/activityCompletionMethod",
                "valueString": "Data"
              },
              {
                "url": "https://www.icanbwell.com/activityRedirectUrl",
                "valueString": "/invite-family-member/"
              },
              {
                "url": "https://www.icanbwell.com/activityContentId",
                "valueString": "b6f5f87c-327b-11ed-a8db-666c69ee66a3"
              },
              {
                "url": "https://www.icanbwell.com/activityPoints",
                "valueInteger": 200
              }
            ],
            "for": {
              "display": "Himanshu",
              "extension": [
                {
                  "id": "sourceId",
                  "url": "https://www.icanbwell.com/sourceId",
                  "valueString": "Patient/aab16fc4c5914e38b489bcd096369623"
                },
                {
                  "id": "uuid",
                  "url": "https://www.icanbwell.com/uuid",
                  "valueString": "Patient/5934a6f3-c41f-5aa3-aac4-b96ec98d760a"
                },
                {
                  "id": "sourceAssigningAuthority",
                  "url": "https://www.icanbwell.com/sourceAssigningAuthority",
                  "valueString": "bwell"
                }
              ],
              "reference": "Patient/aab16fc4c5914e38b489bcd096369623"
            },
            "id": "b59bed1b-5bc1-46ce-be79-2f8a07ce7324",
            "identifier": [
              {
                "system": "https://www.icanbwell.com/activityName",
                "value": "Get Out and Move"
              },
              {
                "id": "sourceId",
                "system": "https://www.icanbwell.com/sourceId",
                "value": "b59bed1b-5bc1-46ce-be79-2f8a07ce7324"
              },
              {
                "id": "uuid",
                "system": "https://www.icanbwell.com/uuid",
                "value": "b59bed1b-5bc1-46ce-be79-2f8a07ce7324"
              }
            ],
            "instantiatesCanonical": "https://fhir.dev-ue1.bwell.zone/4_0_0/ActivityDefinition/34ad8566-9e53-4d2e-9049-d0dd8c46e904",
            "meta": {
              "security": [
                {
                  "code": "bwell",
                  "system": "https://www.icanbwell.com/access"
                },
                {
                  "code": "bwell",
                  "system": "https://www.icanbwell.com/owner"
                },
                {
                  "code": "bwell",
                  "system": "https://www.icanbwell.com/sourceAssigningAuthority"
                }
              ],
              "versionId": "1"
            },
            "resourceType": "Task",
            "status": "ready"
          }
        ],
        "gender": "male",
        "id": "002126287fbd412d8b52115e48edbd4c",
        "identifier": [
          {
            "system": "https://www.icanbwell.com",
            "type": {
              "coding": [
                {
                  "code": "FHIR_id",
                  "display": "bWell FHIR id",
                  "system": "https://www.icanbwell.com"
                }
              ]
            },
            "value": "bwell-002126287fbd412d8b52115e48edbd4c"
          },
          {
            "id": "sourceId",
            "system": "https://www.icanbwell.com/sourceId",
            "value": "002126287fbd412d8b52115e48edbd4c"
          },
          {
            "id": "uuid",
            "system": "https://www.icanbwell.com/uuid",
            "value": "0115f5e0-cf82-5fce-9a3d-bd3f43f059a4"
          }
        ],
        "link": [
          {
            "assurance": "level4",
            "target": {
              "extension": [
                {
                  "id": "sourceId",
                  "url": "https://www.icanbwell.com/sourceId",
                  "valueString": "Patient/aab16fc4c5914e38b489bcd096369623"
                },
                {
                  "id": "uuid",
                  "url": "https://www.icanbwell.com/uuid",
                  "valueString": "Patient/b2ee7ab4-c3b1-50af-8017-dbecc28177bf"
                },
                {
                  "id": "sourceAssigningAuthority",
                  "url": "https://www.icanbwell.com/sourceAssigningAuthority",
                  "valueString": "healthsystem2"
                }
              ],
              "reference": "Patient/aab16fc4c5914e38b489bcd096369623",
              "type": "Patient"
            }
          },
          {
            "target": {
              "extension": [
                {
                  "id": "sourceId",
                  "url": "https://www.icanbwell.com/sourceId",
                  "valueString": "Patient/0318898e65044aaab3115d048d44c434"
                },
                {
                  "id": "uuid",
                  "url": "https://www.icanbwell.com/uuid",
                  "valueString": "Patient/516376f2-c326-5ecb-8ab8-033c9b7a8bbc"
                },
                {
                  "id": "sourceAssigningAuthority",
                  "url": "https://www.icanbwell.com/sourceAssigningAuthority",
                  "valueString": "healthsystem2"
                }
              ],
              "reference": "Patient/0318898e65044aaab3115d048d44c434",
              "type": "Patient"
            }
          }
        ],
        "meta": {
          "security": [
            {
              "code": "healthsystem2",
              "system": "https://www.icanbwell.com/access"
            },
            {
              "code": "healthsystem2",
              "system": "https://www.icanbwell.com/owner"
            },
            {
              "code": "healthsystem2",
              "system": "https://www.icanbwell.com/sourceAssigningAuthority"
            }
          ],
          "versionId": "1"
        },
        "name": [
          {
            "family": "Family",
            "given": [
              "Given"
            ],
            "use": "official"
          }
        ],
        "resourceType": "Person",
        "telecom": [
          {
            "system": "phone",
            "use": "home",
            "value": "+919999999999"
          },
          {
            "system": "email",
            "use": "home",
            "value": "foo@bar.com"
          }
        ]
      }
    }
  ],
  "resourceType": "Bundle",
  "total": 1,
  "type": "searchset"
}
