{
  "entry": [
    {
      "resource": {
        "birthDate": "2017-01-01",
        "gender": "female",
        "id": "24a5930e-11b4-5525-b482-669174917044",
        "identifier": [
          {
            "id": "sourceId",
            "system": "https://www.icanbwell.com/sourceId",
            "value": "patient1"
          },
          {
            "id": "uuid",
            "system": "https://www.icanbwell.com/uuid",
            "value": "24a5930e-11b4-5525-b482-669174917044"
          }
        ],
        "meta": {
          "versionId": "1",
          "source": "http://healthsystem1health.org/provider",
          "security": [
            {
              "id": "21ef6cd5-667d-53e9-a787-f6fc10847183",
              "system": "https://www.icanbwell.com/access",
              "code": "healthsystem1"
            },
            {
              "id": "6e1a1bd3-9764-55e3-93a3-4cc9f74b3f43",
              "system": "https://www.icanbwell.com/owner",
              "code": "healthsystem1"
            },
            {
              "id": "e4a94e06-a98b-5f89-8724-d2a8cc5bfeef",
              "system": "https://www.icanbwell.com/sourceAssigningAuthority",
              "code": "healthsystem1"
            }
          ]
        },
        "name": [
          {
            "use": "usual",
            "text": "patient1",
            "family": "PATIENT1",
            "given": ["SHYLA"]
          },
          {
            "use": "usual",
            "text": "patient3",
            "family": "PATIENT3",
            "given": ["SHYLA"]
          }
        ],
        "resourceType": "Patient",
        "telecom": [],
        "address": [],
        "communication": []
      }
    },
    {
      "resource": {
        "birthDate": "2017-01-01",
        "gender": "female",
        "id": "7b45e610-8adb-540e-947a-fe449987f8a9",
        "identifier": [
          {
            "id": "sourceId",
            "system": "https://www.icanbwell.com/sourceId",
            "value": "patient3"
          },
          {
            "id": "uuid",
            "system": "https://www.icanbwell.com/uuid",
            "value": "7b45e610-8adb-540e-947a-fe449987f8a9"
          }
        ],
        "link": [
          {
            "other": {
              "extension": [
                {
                  "id": "sourceId",
                  "url": "https://www.icanbwell.com/sourceId",
                  "valueString": "Patient/patient1"
                },
                {
                  "id": "uuid",
                  "url": "https://www.icanbwell.com/uuid",
                  "valueString": "Patient/24a5930e-11b4-5525-b482-669174917044"
                },
                {
                  "id": "sourceAssigningAuthority",
                  "url": "https://www.icanbwell.com/sourceAssigningAuthority",
                  "valueString": "healthsystem1"
                }
              ],
              "reference": "Patient/24a5930e-11b4-5525-b482-669174917044"
            },
            "type": "seealso"
          }
        ],
        "meta": {
          "versionId": "1",
          "source": "http://healthsystem1health.org/provider",
          "security": [
            {
              "id": "21ef6cd5-667d-53e9-a787-f6fc10847183",
              "system": "https://www.icanbwell.com/access",
              "code": "healthsystem1"
            },
            {
              "id": "6e1a1bd3-9764-55e3-93a3-4cc9f74b3f43",
              "system": "https://www.icanbwell.com/owner",
              "code": "healthsystem1"
            },
            {
              "id": "e4a94e06-a98b-5f89-8724-d2a8cc5bfeef",
              "system": "https://www.icanbwell.com/sourceAssigningAuthority",
              "code": "healthsystem1"
            }
          ]
        },
        "name": [
          {
            "use": "usual",
            "text": "patient3",
            "family": "PATIENT3",
            "given": ["SHYLA"]
          }
        ],
        "resourceType": "Patient"
      }
    },
    {
      "resource": {
        "resourceType": "Organization",
        "id": "bwell",
        "name": "b.well Connected Health"
      }
    },
    {
      "resource": {
        "id": "Composition-24a5930e-11b4-5525-b482-669174917044",
        "resourceType": "Composition",
        "status": "final",
        "type": {
          "coding": [
            {
              "system": "http://loinc.org",
              "code": "60591-5",
              "display": "Patient summary Document"
            }
          ]
        },
        "subject": {
          "reference": "Patient/24a5930e-11b4-5525-b482-669174917044"
        },
        "author": [
          {
            "reference": "Organization/bwell",
            "display": "b.well Connected Health"
          }
        ],
        "title": "International Patient Summary",
        "section": [
          {
            "title": "Problem List",
            "code": {
              "coding": [
                {
                  "system": "http://loinc.org",
                  "code": "11450-4",
                  "display": "Problem List"
                }
              ],
              "text": "Problem List"
            },
            "text": {
              "status": "generated",
              "div": "<div xmlns=\"http://www.w3.org/1999/xhtml\">There is no information available about the subject's health problems or disabilities.</div>"
            },
            "entry": []
          },
          {
            "title": "Allergies and Intolerances",
            "code": {
              "coding": [
                {
                  "system": "http://loinc.org",
                  "code": "48765-2",
                  "display": "Allergies and Intolerances"
                }
              ],
              "text": "Allergies and Intolerances"
            },
            "text": {
              "status": "generated",
              "div": "<div xmlns=\"http://www.w3.org/1999/xhtml\">There is no information available regarding the subject's allergy conditions.</div>"
            },
            "entry": []
          },
          {
            "title": "Medication Summary",
            "code": {
              "coding": [
                {
                  "system": "http://loinc.org",
                  "code": "10160-0",
                  "display": "Medication Summary"
                }
              ],
              "text": "Medication Summary"
            },
            "text": {
              "status": "generated",
              "div": "<div xmlns=\"http://www.w3.org/1999/xhtml\">There is no information available about the subject's medication use or administration.</div>"
            },
            "entry": []
          }
        ],
        "text": {
          "status": "generated",
          "div": "<div xmlns=\"http://www.w3.org/1999/xhtml\"><p>This section merges all Patient resources into a single combined patient record, preferring non-empty values for each field.</p><div> <ul> <li><strong>Name(s):</strong><ul><li>patient1</li></ul><ul><li>patient3</li></ul></li> <li><strong>Gender:</strong>Female</li> <li><strong>Date of Birth:</strong>2017-01-01</li> <li><strong>Telecom:</strong><ul></ul></li> <li><strong>Address(es):</strong></li> <li><strong>Marital Status:</strong> </li> <li><strong>Deceased:</strong></li> <li><strong>Language(s):</strong></li> </ul> </div></div>"
        }
      }
    }
  ],
  "resourceType": "Bundle",
  "type": "document",
  "identifier": {
    "system": "urn:ietf:rfc:3986",
    "value": "urn:uuid:4dcfd353-49fd-4ab0-b521-c8d57ced74d6"
  },
  "total": 4
}
