{
  "entry": [
    {
      "resource": {
        "birthDate": "2017-01-01",
        "gender": "female",
        "id": "24a5930e-11b4-5525-b482-669174917044",
        "identifier": [
          {
            "id": "sourceId",
            "system": "https://www.icanbwell.com/sourceId",
            "value": "patient1"
          },
          {
            "id": "uuid",
            "system": "https://www.icanbwell.com/uuid",
            "value": "24a5930e-11b4-5525-b482-669174917044"
          }
        ],
        "meta": {
          "versionId": "1",
          "source": "http://healthsystem1health.org/provider",
          "security": [
            {
              "id": "21ef6cd5-667d-53e9-a787-f6fc10847183",
              "system": "https://www.icanbwell.com/access",
              "code": "healthsystem1"
            },
            {
              "id": "6e1a1bd3-9764-55e3-93a3-4cc9f74b3f43",
              "system": "https://www.icanbwell.com/owner",
              "code": "healthsystem1"
            },
            {
              "id": "e4a94e06-a98b-5f89-8724-d2a8cc5bfeef",
              "system": "https://www.icanbwell.com/sourceAssigningAuthority",
              "code": "healthsystem1"
            }
          ]
        },
        "name": [
          {
            "use": "usual",
            "text": "patient1",
            "family": "PATIENT1",
            "given": ["SHYLA"]
          }
        ],
        "resourceType": "Patient"
      }
    },
    {
      "resource": {
        "resourceType": "Organization",
        "id": "bwell",
        "name": "b.well Connected Health"
      }
    },
    {
      "resource": {
        "id": "Composition-24a5930e-11b4-5525-b482-669174917044",
        "resourceType": "Composition",
        "status": "final",
        "type": {
          "coding": [
            {
              "system": "http://loinc.org",
              "code": "60591-5",
              "display": "Patient summary Document"
            }
          ]
        },
        "subject": {
          "reference": "Patient/24a5930e-11b4-5525-b482-669174917044"
        },
        "author": [
          {
            "reference": "Organization/bwell",
            "display": "b.well Connected Health"
          }
        ],
        "title": "International Patient Summary",
        "section": [
          {
            "title": "Problem List",
            "code": {
              "coding": [
                {
                  "system": "http://loinc.org",
                  "code": "11450-4",
                  "display": "Problem List"
                }
              ],
              "text": "Problem List"
            },
            "text": {
              "status": "generated",
              "div": "<div xmlns=\"http://www.w3.org/1999/xhtml\">There is no information available about the subject's health problems or disabilities.</div>"
            },
            "entry": []
          },
          {
            "title": "Allergies and Intolerances",
            "code": {
              "coding": [
                {
                  "system": "http://loinc.org",
                  "code": "48765-2",
                  "display": "Allergies and Intolerances"
                }
              ],
              "text": "Allergies and Intolerances"
            },
            "text": {
              "status": "generated",
              "div": "<div xmlns=\"http://www.w3.org/1999/xhtml\">There is no information available regarding the subject's allergy conditions.</div>"
            },
            "entry": []
          },
          {
            "title": "Medication Summary",
            "code": {
              "coding": [
                {
                  "system": "http://loinc.org",
                  "code": "10160-0",
                  "display": "Medication Summary"
                }
              ],
              "text": "Medication Summary"
            },
            "text": {
              "status": "generated",
              "div": "<div xmlns=\"http://www.w3.org/1999/xhtml\">There is no information available about the subject's medication use or administration.</div>"
            },
            "entry": []
          }
        ],
        "text": {
          "status": "generated",
          "div": "<div xmlns=\"http://www.w3.org/1999/xhtml\"><p>This section merges all Patient resources into a single combined patient record, preferring non-empty values for each field.</p><div> <ul> <li><strong>Name(s):</strong><ul><li>patient1</li></ul></li> <li><strong>Gender:</strong>Female</li> <li><strong>Date of Birth:</strong>2017-01-01</li> <li><strong>Telecom:</strong><ul></ul></li> <li><strong>Address(es):</strong></li> <li><strong>Language(s):</strong></li> </ul> </div></div>"
        }
      }
    }
  ],
  "resourceType": "Bundle",
  "type": "document",
  "identifier": {
    "system": "urn:ietf:rfc:3986",
    "value": "urn:uuid:4dcfd353-49fd-4ab0-b521-c8d57ced74d6"
  },
    "meta": {
    "tag": [
      {
        "system": "https://www.icanbwell.com/query",
        "display": "db.Patient_4_0_0.find({'_sourceId':'patient1'}, {'_id':0})  | db.AllergyIntolerance_4_0_0.find({'$and':[{'patient._uuid':'Patient/24a5930e-11b4-5525-b482-669174917044'},{'meta.lastUpdated':{'$gt':ISODate('2024-12-31T00:00:00.000Z'),'$lt':ISODate('2025-01-02T00:00:00.000Z')}},{'meta.tag':{'$not':{'$elemMatch':{'system':'https://fhir.icanbwell.com/4_0_0/CodeSystem/server-behavior','code':'hidden'}}}}]}, {}) | db.CarePlan_4_0_0.find({'$and':[{'subject._uuid':'Patient/24a5930e-11b4-5525-b482-669174917044'},{'status':'active'},{'meta.lastUpdated':{'$gt':ISODate('2024-12-31T00:00:00.000Z'),'$lt':ISODate('2025-01-02T00:00:00.000Z')}},{'meta.tag':{'$not':{'$elemMatch':{'system':'https://fhir.icanbwell.com/4_0_0/CodeSystem/server-behavior','code':'hidden'}}}}]}, {}) | db.ClinicalImpression_4_0_0.find({'$and':[{'subject._uuid':'Patient/24a5930e-11b4-5525-b482-669174917044'},{'status':'completed'},{'meta.lastUpdated':{'$gt':ISODate('2024-12-31T00:00:00.000Z'),'$lt':ISODate('2025-01-02T00:00:00.000Z')}},{'meta.tag':{'$not':{'$elemMatch':{'system':'https://fhir.icanbwell.com/4_0_0/CodeSystem/server-behavior','code':'hidden'}}}}]}, {}) | db.Composition_4_0_0.find({'$and':[{'subject._uuid':'Patient/24a5930e-11b4-5525-b482-669174917044'},{'type.coding.code':{'$in':['allergy_summary_document','condition_summary_document','vital_summary_document','careplan_summary_document','immunization_summary_document','medication_summary_document','procedure_summary_document','ips_patient_summary_document','ips_vital_summary_document','ips_advanced_directives_summary_document','ips_social_history_summary_document','ips_functional_status_condition_summary_document','ips_functional_status_clinical_impression_summary_document','ips_medical_device_summary_document','ips_pregnancy_history_summary_document']}},{'meta.lastUpdated':{'$gt':ISODate('2024-12-31T00:00:00.000Z'),'$lt':ISODate('2025-01-02T00:00:00.000Z')}},{'meta.tag':{'$not':{'$elemMatch':{'system':'https://fhir.icanbwell.com/4_0_0/CodeSystem/server-behavior','code':'hidden'}}}}]}, {}) | db.Condition_4_0_0.find({'$and':[{'subject._uuid':'Patient/24a5930e-11b4-5525-b482-669174917044'},{'meta.lastUpdated':{'$gt':ISODate('2024-12-31T00:00:00.000Z'),'$lt':ISODate('2025-01-02T00:00:00.000Z')}},{'meta.tag':{'$not':{'$elemMatch':{'system':'https://fhir.icanbwell.com/4_0_0/CodeSystem/server-behavior','code':'hidden'}}}}]}, {}) | db.Consent_4_0_0.find({'$and':[{'patient._uuid':'Patient/24a5930e-11b4-5525-b482-669174917044'},{'status':'active'},{'meta.lastUpdated':{'$gt':ISODate('2024-12-31T00:00:00.000Z'),'$lt':ISODate('2025-01-02T00:00:00.000Z')}},{'meta.tag':{'$not':{'$elemMatch':{'system':'https://fhir.icanbwell.com/4_0_0/CodeSystem/server-behavior','code':'hidden'}}}}]}, {}) | db.DeviceUseStatement_4_0_0.find({'$and':[{'subject._uuid':'Patient/24a5930e-11b4-5525-b482-669174917044'},{'meta.lastUpdated':{'$gt':ISODate('2024-12-31T00:00:00.000Z'),'$lt':ISODate('2025-01-02T00:00:00.000Z')}},{'meta.tag':{'$not':{'$elemMatch':{'system':'https://fhir.icanbwell.com/4_0_0/CodeSystem/server-behavior','code':'hidden'}}}}]}, {}) | db.DiagnosticReport_4_0_0.find({'$and':[{'subject._uuid':'Patient/24a5930e-11b4-5525-b482-669174917044'},{'status':'final'},{'meta.lastUpdated':{'$gt':ISODate('2024-12-31T00:00:00.000Z'),'$lt':ISODate('2025-01-02T00:00:00.000Z')}},{'meta.tag':{'$not':{'$elemMatch':{'system':'https://fhir.icanbwell.com/4_0_0/CodeSystem/server-behavior','code':'hidden'}}}}]}, {}) | db.Immunization_4_0_0.find({'$and':[{'patient._uuid':'Patient/24a5930e-11b4-5525-b482-669174917044'},{'status':'completed'},{'meta.lastUpdated':{'$gt':ISODate('2024-12-31T00:00:00.000Z'),'$lt':ISODate('2025-01-02T00:00:00.000Z')}},{'meta.tag':{'$not':{'$elemMatch':{'system':'https://fhir.icanbwell.com/4_0_0/CodeSystem/server-behavior','code':'hidden'}}}}]}, {}) | db.MedicationDispense_4_0_0.find({'$and':[{'subject._uuid':'Patient/24a5930e-11b4-5525-b482-669174917044'},{'meta.lastUpdated':{'$gt':ISODate('2024-12-31T00:00:00.000Z'),'$lt':ISODate('2025-01-02T00:00:00.000Z')}},{'meta.tag':{'$not':{'$elemMatch':{'system':'https://fhir.icanbwell.com/4_0_0/CodeSystem/server-behavior','code':'hidden'}}}}]}, {}) | db.MedicationRequest_4_0_0.find({'$and':[{'subject._uuid':'Patient/24a5930e-11b4-5525-b482-669174917044'},{'status':'active'},{'meta.lastUpdated':{'$gt':ISODate('2024-12-31T00:00:00.000Z'),'$lt':ISODate('2025-01-02T00:00:00.000Z')}},{'meta.tag':{'$not':{'$elemMatch':{'system':'https://fhir.icanbwell.com/4_0_0/CodeSystem/server-behavior','code':'hidden'}}}}]}, {}) | db.MedicationStatement_4_0_0.find({'$and':[{'subject._uuid':'Patient/24a5930e-11b4-5525-b482-669174917044'},{'status':'active'},{'meta.lastUpdated':{'$gt':ISODate('2024-12-31T00:00:00.000Z'),'$lt':ISODate('2025-01-02T00:00:00.000Z')}},{'meta.tag':{'$not':{'$elemMatch':{'system':'https://fhir.icanbwell.com/4_0_0/CodeSystem/server-behavior','code':'hidden'}}}}]}, {}) | db.Observation_4_0_0.find({'$and':[{'subject._uuid':'Patient/24a5930e-11b4-5525-b482-669174917044'},{'$or':[{'effectiveDateTime':{'$gte':'2023-12-15T00:00:00+00:00'}},{'$and':[{'effectivePeriod.start':{'$ne':null}},{'$or':[{'effectivePeriod.end':{'$gte':'2023-12-15T00:00:00+00:00'}},{'effectivePeriod.end':null}]}]},{'effectiveTiming.event':{'$ne':null}},{'effectiveInstant':{'$gte':ISODate('2023-12-15T00:00:00.000Z')}}]},{'meta.lastUpdated':{'$gt':ISODate('2024-12-31T00:00:00.000Z'),'$lt':ISODate('2025-01-02T00:00:00.000Z')}},{'meta.tag':{'$not':{'$elemMatch':{'system':'https://fhir.icanbwell.com/4_0_0/CodeSystem/server-behavior','code':'hidden'}}}}]}, {}) | db.Procedure_4_0_0.find({'$and':[{'subject._uuid':'Patient/24a5930e-11b4-5525-b482-669174917044'},{'status':'completed'},{'meta.lastUpdated':{'$gt':ISODate('2024-12-31T00:00:00.000Z'),'$lt':ISODate('2025-01-02T00:00:00.000Z')}},{'meta.tag':{'$not':{'$elemMatch':{'system':'https://fhir.icanbwell.com/4_0_0/CodeSystem/server-behavior','code':'hidden'}}}}]}, {})"
      },
      {
        "system": "https://www.icanbwell.com/queryCollection",
        "code": "Patient_4_0_0|AllergyIntolerance_4_0_0|CarePlan_4_0_0|ClinicalImpression_4_0_0|Composition_4_0_0|Condition_4_0_0|Consent_4_0_0|DeviceUseStatement_4_0_0|DiagnosticReport_4_0_0|Immunization_4_0_0|MedicationDispense_4_0_0|MedicationRequest_4_0_0|MedicationStatement_4_0_0|Observation_4_0_0|Procedure_4_0_0"
      },
      {
        "system": "https://www.icanbwell.com/queryOptions",
        "display": "[{'projection':{'_id':0}}]"
      },
      {
        "system": "https://www.icanbwell.com/queryFields",
        "display": "[]"
      },
      {
        "system": "https://www.icanbwell.com/queryTime"
      },
      {
        "system": "https://www.icanbwell.com/queryOptimization",
        "display": "{'useTwoStepSearchOptimization':undefined}"
      },
      {
        "system": "https://www.icanbwell.com/queryExplain"
      },
      {
        "system": "https://www.icanbwell.com/queryExplainSimple"
      }
    ]
  },
  "total": 3
}
