{
  "entry": [
    {
      "resource": {
        "birthDate": "2017-01-01",
        "gender": "female",
        "id": "24a5930e-11b4-5525-b482-669174917044",
        "identifier": [
          {
            "id": "sourceId",
            "system": "https://www.icanbwell.com/sourceId",
            "value": "patient1"
          },
          {
            "id": "uuid",
            "system": "https://www.icanbwell.com/uuid",
            "value": "24a5930e-11b4-5525-b482-669174917044"
          }
        ],
        "meta": {
          "versionId": "1",
          "source": "http://healthsystem1health.org/provider",
          "security": [
            {
              "id": "21ef6cd5-667d-53e9-a787-f6fc10847183",
              "system": "https://www.icanbwell.com/access",
              "code": "healthsystem1"
            },
            {
              "id": "6e1a1bd3-9764-55e3-93a3-4cc9f74b3f43",
              "system": "https://www.icanbwell.com/owner",
              "code": "healthsystem1"
            },
            {
              "id": "e4a94e06-a98b-5f89-8724-d2a8cc5bfeef",
              "system": "https://www.icanbwell.com/sourceAssigningAuthority",
              "code": "healthsystem1"
            }
          ]
        },
        "name": [
          {
            "use": "usual",
            "text": "t",
            "family": "PATIENT1",
            "given": ["SHYLA"]
          }
        ],
        "resourceType": "Patient"
      }
    },
    {
      "resource": {
        "resourceType": "Organization",
        "id": "bwell",
        "name": "b.well Connected Health"
      }
    },
    {
      "resource": {
        "id": "Composition-24a5930e-11b4-5525-b482-669174917044",
        "resourceType": "Composition",
        "status": "final",
        "type": {
          "coding": [
            {
              "system": "http://loinc.org",
              "code": "60591-5",
              "display": "Patient summary Document"
            }
          ]
        },
        "subject": {
          "reference": "Patient/24a5930e-11b4-5525-b482-669174917044"
        },
        "author": [
          {
            "reference": "Organization/bwell",
            "display": "b.well Connected Health"
          }
        ],
        "title": "International Patient Summary",
        "section": [
          {
            "title": "Problem List",
            "code": {
              "coding": [
                {
                  "system": "http://loinc.org",
                  "code": "11450-4",
                  "display": "Problem List"
                }
              ],
              "text": "Problem List"
            },
            "text": {
              "status": "generated",
              "div": "<div xmlns=\"http://www.w3.org/1999/xhtml\">There is no information available about the subject's health problems or disabilities.</div>"
            },
            "entry": []
          },
          {
            "title": "Allergies and Intolerances",
            "code": {
              "coding": [
                {
                  "system": "http://loinc.org",
                  "code": "48765-2",
                  "display": "Allergies and Intolerances"
                }
              ],
              "text": "Allergies and Intolerances"
            },
            "text": {
              "status": "generated",
              "div": "<div xmlns=\"http://www.w3.org/1999/xhtml\">There is no information available regarding the subject's allergy conditions.</div>"
            },
            "entry": []
          },
          {
            "title": "Medication Summary",
            "code": {
              "coding": [
                {
                  "system": "http://loinc.org",
                  "code": "10160-0",
                  "display": "Medication Summary"
                }
              ],
              "text": "Medication Summary"
            },
            "text": {
              "status": "generated",
              "div": "<div xmlns=\"http://www.w3.org/1999/xhtml\">There is no information available about the subject's medication use or administration.</div>"
            },
            "entry": []
          }
        ],
        "text": {
          "status": "generated",
          "div": "<div xmlns=\"http://www.w3.org/1999/xhtml\"> <div> <ul> <li><strong>Name(s):</strong><ul><li>t</li></ul></li> <li><strong>Gender:</strong>Female</li> <li><strong>Date of Birth:</strong>2017-01-01</li> <li><strong>Identifier(s):</strong><ul><li>https://www.icanbwell.com/sourceId: patient1</li></ul><ul><li>https://www.icanbwell.com/uuid: 24a5930e-11b4-5525-b482-669174917044</li></ul></li> <li><strong>Telecom:</strong><ul></ul></li> <li><strong>Address(es):</strong></li> <li><strong>Marital Status:</strong> </li> <li><strong>Deceased:</strong></li> <li><strong>Language(s):</strong></li> </ul> </div></div>"
        }
      }
    }
  ],
  "resourceType": "Bundle",
  "type": "document",
  "identifier": {
    "system": "urn:ietf:rfc:3986",
    "value": "urn:uuid:4dcfd353-49fd-4ab0-b521-c8d57ced74d6"
  },
  "meta": {
    "tag": [
      {
        "system": "https://www.icanbwell.com/query",
        "display": "db.Patient_4_0_0.find({'_sourceId':'patient1'}, {'_id':0})  | db.Account_4_0_0.find({'$and':[{'subject._uuid':'Patient/24a5930e-11b4-5525-b482-669174917044'},{'meta.lastUpdated':{'$gt':ISODate('2024-12-31T00:00:00.000Z'),'$lt':ISODate('2025-01-02T00:00:00.000Z')}},{'meta.tag':{'$not':{'$elemMatch':{'system':'https://fhir.icanbwell.com/4_0_0/CodeSystem/server-behavior','code':'hidden'}}}}]}, {}) | db.AdverseEvent_4_0_0.find({'$and':[{'subject._uuid':'Patient/24a5930e-11b4-5525-b482-669174917044'},{'meta.lastUpdated':{'$gt':ISODate('2024-12-31T00:00:00.000Z'),'$lt':ISODate('2025-01-02T00:00:00.000Z')}},{'meta.tag':{'$not':{'$elemMatch':{'system':'https://fhir.icanbwell.com/4_0_0/CodeSystem/server-behavior','code':'hidden'}}}}]}, {}) | db.AllergyIntolerance_4_0_0.find({'$and':[{'patient._uuid':'Patient/24a5930e-11b4-5525-b482-669174917044'},{'meta.lastUpdated':{'$gt':ISODate('2024-12-31T00:00:00.000Z'),'$lt':ISODate('2025-01-02T00:00:00.000Z')}},{'meta.tag':{'$not':{'$elemMatch':{'system':'https://fhir.icanbwell.com/4_0_0/CodeSystem/server-behavior','code':'hidden'}}}}]}, {}) | db.Appointment_4_0_0.find({'$and':[{'participant.actor._uuid':'Patient/24a5930e-11b4-5525-b482-669174917044'},{'meta.lastUpdated':{'$gt':ISODate('2024-12-31T00:00:00.000Z'),'$lt':ISODate('2025-01-02T00:00:00.000Z')}},{'meta.tag':{'$not':{'$elemMatch':{'system':'https://fhir.icanbwell.com/4_0_0/CodeSystem/server-behavior','code':'hidden'}}}}]}, {}) | db.AppointmentResponse_4_0_0.find({'$and':[{'actor._uuid':'Patient/24a5930e-11b4-5525-b482-669174917044'},{'meta.lastUpdated':{'$gt':ISODate('2024-12-31T00:00:00.000Z'),'$lt':ISODate('2025-01-02T00:00:00.000Z')}},{'meta.tag':{'$not':{'$elemMatch':{'system':'https://fhir.icanbwell.com/4_0_0/CodeSystem/server-behavior','code':'hidden'}}}}]}, {}) | db.Basic_4_0_0.find({'$and':[{'subject._uuid':'Patient/24a5930e-11b4-5525-b482-669174917044'},{'meta.lastUpdated':{'$gt':ISODate('2024-12-31T00:00:00.000Z'),'$lt':ISODate('2025-01-02T00:00:00.000Z')}},{'meta.tag':{'$not':{'$elemMatch':{'system':'https://fhir.icanbwell.com/4_0_0/CodeSystem/server-behavior','code':'hidden'}}}}]}, {}) | db.BodyStructure_4_0_0.find({'$and':[{'patient._uuid':'Patient/24a5930e-11b4-5525-b482-669174917044'},{'meta.lastUpdated':{'$gt':ISODate('2024-12-31T00:00:00.000Z'),'$lt':ISODate('2025-01-02T00:00:00.000Z')}},{'meta.tag':{'$not':{'$elemMatch':{'system':'https://fhir.icanbwell.com/4_0_0/CodeSystem/server-behavior','code':'hidden'}}}}]}, {}) | db.CarePlan_4_0_0.find({'$and':[{'subject._uuid':'Patient/24a5930e-11b4-5525-b482-669174917044'},{'meta.lastUpdated':{'$gt':ISODate('2024-12-31T00:00:00.000Z'),'$lt':ISODate('2025-01-02T00:00:00.000Z')}},{'meta.tag':{'$not':{'$elemMatch':{'system':'https://fhir.icanbwell.com/4_0_0/CodeSystem/server-behavior','code':'hidden'}}}}]}, {}) | db.CareTeam_4_0_0.find({'$and':[{'subject._uuid':'Patient/24a5930e-11b4-5525-b482-669174917044'},{'meta.lastUpdated':{'$gt':ISODate('2024-12-31T00:00:00.000Z'),'$lt':ISODate('2025-01-02T00:00:00.000Z')}},{'meta.tag':{'$not':{'$elemMatch':{'system':'https://fhir.icanbwell.com/4_0_0/CodeSystem/server-behavior','code':'hidden'}}}}]}, {}) | db.ChargeItem_4_0_0.find({'$and':[{'subject._uuid':'Patient/24a5930e-11b4-5525-b482-669174917044'},{'meta.lastUpdated':{'$gt':ISODate('2024-12-31T00:00:00.000Z'),'$lt':ISODate('2025-01-02T00:00:00.000Z')}},{'meta.tag':{'$not':{'$elemMatch':{'system':'https://fhir.icanbwell.com/4_0_0/CodeSystem/server-behavior','code':'hidden'}}}}]}, {}) | db.Claim_4_0_0.find({'$and':[{'patient._uuid':'Patient/24a5930e-11b4-5525-b482-669174917044'},{'meta.lastUpdated':{'$gt':ISODate('2024-12-31T00:00:00.000Z'),'$lt':ISODate('2025-01-02T00:00:00.000Z')}},{'meta.tag':{'$not':{'$elemMatch':{'system':'https://fhir.icanbwell.com/4_0_0/CodeSystem/server-behavior','code':'hidden'}}}}]}, {}) | db.ClaimResponse_4_0_0.find({'$and':[{'patient._uuid':'Patient/24a5930e-11b4-5525-b482-669174917044'},{'meta.lastUpdated':{'$gt':ISODate('2024-12-31T00:00:00.000Z'),'$lt':ISODate('2025-01-02T00:00:00.000Z')}},{'meta.tag':{'$not':{'$elemMatch':{'system':'https://fhir.icanbwell.com/4_0_0/CodeSystem/server-behavior','code':'hidden'}}}}]}, {}) | db.ClinicalImpression_4_0_0.find({'$and':[{'subject._uuid':'Patient/24a5930e-11b4-5525-b482-669174917044'},{'meta.lastUpdated':{'$gt':ISODate('2024-12-31T00:00:00.000Z'),'$lt':ISODate('2025-01-02T00:00:00.000Z')}},{'meta.tag':{'$not':{'$elemMatch':{'system':'https://fhir.icanbwell.com/4_0_0/CodeSystem/server-behavior','code':'hidden'}}}}]}, {}) | db.Communication_4_0_0.find({'$and':[{'subject._uuid':'Patient/24a5930e-11b4-5525-b482-669174917044'},{'meta.lastUpdated':{'$gt':ISODate('2024-12-31T00:00:00.000Z'),'$lt':ISODate('2025-01-02T00:00:00.000Z')}},{'meta.tag':{'$not':{'$elemMatch':{'system':'https://fhir.icanbwell.com/4_0_0/CodeSystem/server-behavior','code':'hidden'}}}}]}, {}) | db.CommunicationRequest_4_0_0.find({'$and':[{'subject._uuid':'Patient/24a5930e-11b4-5525-b482-669174917044'},{'meta.lastUpdated':{'$gt':ISODate('2024-12-31T00:00:00.000Z'),'$lt':ISODate('2025-01-02T00:00:00.000Z')}},{'meta.tag':{'$not':{'$elemMatch':{'system':'https://fhir.icanbwell.com/4_0_0/CodeSystem/server-behavior','code':'hidden'}}}}]}, {}) | db.Composition_4_0_0.find({'$and':[{'subject._uuid':'Patient/24a5930e-11b4-5525-b482-669174917044'},{'meta.lastUpdated':{'$gt':ISODate('2024-12-31T00:00:00.000Z'),'$lt':ISODate('2025-01-02T00:00:00.000Z')}},{'meta.tag':{'$not':{'$elemMatch':{'system':'https://fhir.icanbwell.com/4_0_0/CodeSystem/server-behavior','code':'hidden'}}}}]}, {}) | db.Condition_4_0_0.find({'$and':[{'subject._uuid':'Patient/24a5930e-11b4-5525-b482-669174917044'},{'meta.lastUpdated':{'$gt':ISODate('2024-12-31T00:00:00.000Z'),'$lt':ISODate('2025-01-02T00:00:00.000Z')}},{'meta.tag':{'$not':{'$elemMatch':{'system':'https://fhir.icanbwell.com/4_0_0/CodeSystem/server-behavior','code':'hidden'}}}}]}, {}) | db.Consent_4_0_0.find({'$and':[{'patient._uuid':'Patient/24a5930e-11b4-5525-b482-669174917044'},{'meta.lastUpdated':{'$gt':ISODate('2024-12-31T00:00:00.000Z'),'$lt':ISODate('2025-01-02T00:00:00.000Z')}},{'meta.tag':{'$not':{'$elemMatch':{'system':'https://fhir.icanbwell.com/4_0_0/CodeSystem/server-behavior','code':'hidden'}}}}]}, {}) | db.Contract_4_0_0.find({'$and':[{'subject._uuid':'Patient/24a5930e-11b4-5525-b482-669174917044'},{'meta.lastUpdated':{'$gt':ISODate('2024-12-31T00:00:00.000Z'),'$lt':ISODate('2025-01-02T00:00:00.000Z')}},{'meta.tag':{'$not':{'$elemMatch':{'system':'https://fhir.icanbwell.com/4_0_0/CodeSystem/server-behavior','code':'hidden'}}}}]}, {}) | db.Coverage_4_0_0.find({'$and':[{'beneficiary._uuid':'Patient/24a5930e-11b4-5525-b482-669174917044'},{'meta.lastUpdated':{'$gt':ISODate('2024-12-31T00:00:00.000Z'),'$lt':ISODate('2025-01-02T00:00:00.000Z')}},{'meta.tag':{'$not':{'$elemMatch':{'system':'https://fhir.icanbwell.com/4_0_0/CodeSystem/server-behavior','code':'hidden'}}}}]}, {}) | db.CoverageEligibilityRequest_4_0_0.find({'$and':[{'patient._uuid':'Patient/24a5930e-11b4-5525-b482-669174917044'},{'meta.lastUpdated':{'$gt':ISODate('2024-12-31T00:00:00.000Z'),'$lt':ISODate('2025-01-02T00:00:00.000Z')}},{'meta.tag':{'$not':{'$elemMatch':{'system':'https://fhir.icanbwell.com/4_0_0/CodeSystem/server-behavior','code':'hidden'}}}}]}, {}) | db.CoverageEligibilityResponse_4_0_0.find({'$and':[{'patient._uuid':'Patient/24a5930e-11b4-5525-b482-669174917044'},{'meta.lastUpdated':{'$gt':ISODate('2024-12-31T00:00:00.000Z'),'$lt':ISODate('2025-01-02T00:00:00.000Z')}},{'meta.tag':{'$not':{'$elemMatch':{'system':'https://fhir.icanbwell.com/4_0_0/CodeSystem/server-behavior','code':'hidden'}}}}]}, {}) | db.DetectedIssue_4_0_0.find({'$and':[{'patient._uuid':'Patient/24a5930e-11b4-5525-b482-669174917044'},{'meta.lastUpdated':{'$gt':ISODate('2024-12-31T00:00:00.000Z'),'$lt':ISODate('2025-01-02T00:00:00.000Z')}},{'meta.tag':{'$not':{'$elemMatch':{'system':'https://fhir.icanbwell.com/4_0_0/CodeSystem/server-behavior','code':'hidden'}}}}]}, {}) | db.Device_4_0_0.find({'$and':[{'patient._uuid':'Patient/24a5930e-11b4-5525-b482-669174917044'},{'meta.lastUpdated':{'$gt':ISODate('2024-12-31T00:00:00.000Z'),'$lt':ISODate('2025-01-02T00:00:00.000Z')}},{'meta.tag':{'$not':{'$elemMatch':{'system':'https://fhir.icanbwell.com/4_0_0/CodeSystem/server-behavior','code':'hidden'}}}}]}, {}) | db.DeviceRequest_4_0_0.find({'$and':[{'subject._uuid':'Patient/24a5930e-11b4-5525-b482-669174917044'},{'meta.lastUpdated':{'$gt':ISODate('2024-12-31T00:00:00.000Z'),'$lt':ISODate('2025-01-02T00:00:00.000Z')}},{'meta.tag':{'$not':{'$elemMatch':{'system':'https://fhir.icanbwell.com/4_0_0/CodeSystem/server-behavior','code':'hidden'}}}}]}, {}) | db.DeviceUseStatement_4_0_0.find({'$and':[{'subject._uuid':'Patient/24a5930e-11b4-5525-b482-669174917044'},{'meta.lastUpdated':{'$gt':ISODate('2024-12-31T00:00:00.000Z'),'$lt':ISODate('2025-01-02T00:00:00.000Z')}},{'meta.tag':{'$not':{'$elemMatch':{'system':'https://fhir.icanbwell.com/4_0_0/CodeSystem/server-behavior','code':'hidden'}}}}]}, {}) | db.DiagnosticReport_4_0_0.find({'$and':[{'subject._uuid':'Patient/24a5930e-11b4-5525-b482-669174917044'},{'meta.lastUpdated':{'$gt':ISODate('2024-12-31T00:00:00.000Z'),'$lt':ISODate('2025-01-02T00:00:00.000Z')}},{'meta.tag':{'$not':{'$elemMatch':{'system':'https://fhir.icanbwell.com/4_0_0/CodeSystem/server-behavior','code':'hidden'}}}}]}, {}) | db.DocumentManifest_4_0_0.find({'$and':[{'subject._uuid':'Patient/24a5930e-11b4-5525-b482-669174917044'},{'meta.lastUpdated':{'$gt':ISODate('2024-12-31T00:00:00.000Z'),'$lt':ISODate('2025-01-02T00:00:00.000Z')}},{'meta.tag':{'$not':{'$elemMatch':{'system':'https://fhir.icanbwell.com/4_0_0/CodeSystem/server-behavior','code':'hidden'}}}}]}, {}) | db.DocumentReference_4_0_0.find({'$and':[{'subject._uuid':'Patient/24a5930e-11b4-5525-b482-669174917044'},{'meta.lastUpdated':{'$gt':ISODate('2024-12-31T00:00:00.000Z'),'$lt':ISODate('2025-01-02T00:00:00.000Z')}},{'meta.tag':{'$not':{'$elemMatch':{'system':'https://fhir.icanbwell.com/4_0_0/CodeSystem/server-behavior','code':'hidden'}}}}]}, {}) | db.Encounter_4_0_0.find({'$and':[{'subject._uuid':'Patient/24a5930e-11b4-5525-b482-669174917044'},{'meta.lastUpdated':{'$gt':ISODate('2024-12-31T00:00:00.000Z'),'$lt':ISODate('2025-01-02T00:00:00.000Z')}},{'meta.tag':{'$not':{'$elemMatch':{'system':'https://fhir.icanbwell.com/4_0_0/CodeSystem/server-behavior','code':'hidden'}}}}]}, {}) | db.EnrollmentRequest_4_0_0.find({'$and':[{'candidate._uuid':'Patient/24a5930e-11b4-5525-b482-669174917044'},{'meta.lastUpdated':{'$gt':ISODate('2024-12-31T00:00:00.000Z'),'$lt':ISODate('2025-01-02T00:00:00.000Z')}},{'meta.tag':{'$not':{'$elemMatch':{'system':'https://fhir.icanbwell.com/4_0_0/CodeSystem/server-behavior','code':'hidden'}}}}]}, {}) | db.EpisodeOfCare_4_0_0.find({'$and':[{'patient._uuid':'Patient/24a5930e-11b4-5525-b482-669174917044'},{'meta.lastUpdated':{'$gt':ISODate('2024-12-31T00:00:00.000Z'),'$lt':ISODate('2025-01-02T00:00:00.000Z')}},{'meta.tag':{'$not':{'$elemMatch':{'system':'https://fhir.icanbwell.com/4_0_0/CodeSystem/server-behavior','code':'hidden'}}}}]}, {}) | db.ExplanationOfBenefit_4_0_0.find({'$and':[{'patient._uuid':'Patient/24a5930e-11b4-5525-b482-669174917044'},{'meta.lastUpdated':{'$gt':ISODate('2024-12-31T00:00:00.000Z'),'$lt':ISODate('2025-01-02T00:00:00.000Z')}},{'meta.tag':{'$not':{'$elemMatch':{'system':'https://fhir.icanbwell.com/4_0_0/CodeSystem/server-behavior','code':'hidden'}}}}]}, {}) | db.FamilyMemberHistory_4_0_0.find({'$and':[{'patient._uuid':'Patient/24a5930e-11b4-5525-b482-669174917044'},{'meta.lastUpdated':{'$gt':ISODate('2024-12-31T00:00:00.000Z'),'$lt':ISODate('2025-01-02T00:00:00.000Z')}},{'meta.tag':{'$not':{'$elemMatch':{'system':'https://fhir.icanbwell.com/4_0_0/CodeSystem/server-behavior','code':'hidden'}}}}]}, {}) | db.Flag_4_0_0.find({'$and':[{'subject._uuid':'Patient/24a5930e-11b4-5525-b482-669174917044'},{'meta.lastUpdated':{'$gt':ISODate('2024-12-31T00:00:00.000Z'),'$lt':ISODate('2025-01-02T00:00:00.000Z')}},{'meta.tag':{'$not':{'$elemMatch':{'system':'https://fhir.icanbwell.com/4_0_0/CodeSystem/server-behavior','code':'hidden'}}}}]}, {}) | db.Goal_4_0_0.find({'$and':[{'subject._uuid':'Patient/24a5930e-11b4-5525-b482-669174917044'},{'meta.lastUpdated':{'$gt':ISODate('2024-12-31T00:00:00.000Z'),'$lt':ISODate('2025-01-02T00:00:00.000Z')}},{'meta.tag':{'$not':{'$elemMatch':{'system':'https://fhir.icanbwell.com/4_0_0/CodeSystem/server-behavior','code':'hidden'}}}}]}, {}) | db.Group_4_0_0.find({'$and':[{'member.entity._uuid':'Patient/24a5930e-11b4-5525-b482-669174917044'},{'meta.lastUpdated':{'$gt':ISODate('2024-12-31T00:00:00.000Z'),'$lt':ISODate('2025-01-02T00:00:00.000Z')}},{'meta.tag':{'$not':{'$elemMatch':{'system':'https://fhir.icanbwell.com/4_0_0/CodeSystem/server-behavior','code':'hidden'}}}}]}, {}) | db.GuidanceResponse_4_0_0.find({'$and':[{'subject._uuid':'Patient/24a5930e-11b4-5525-b482-669174917044'},{'meta.lastUpdated':{'$gt':ISODate('2024-12-31T00:00:00.000Z'),'$lt':ISODate('2025-01-02T00:00:00.000Z')}},{'meta.tag':{'$not':{'$elemMatch':{'system':'https://fhir.icanbwell.com/4_0_0/CodeSystem/server-behavior','code':'hidden'}}}}]}, {}) | db.ImagingStudy_4_0_0.find({'$and':[{'subject._uuid':'Patient/24a5930e-11b4-5525-b482-669174917044'},{'meta.lastUpdated':{'$gt':ISODate('2024-12-31T00:00:00.000Z'),'$lt':ISODate('2025-01-02T00:00:00.000Z')}},{'meta.tag':{'$not':{'$elemMatch':{'system':'https://fhir.icanbwell.com/4_0_0/CodeSystem/server-behavior','code':'hidden'}}}}]}, {}) | db.Immunization_4_0_0.find({'$and':[{'patient._uuid':'Patient/24a5930e-11b4-5525-b482-669174917044'},{'meta.lastUpdated':{'$gt':ISODate('2024-12-31T00:00:00.000Z'),'$lt':ISODate('2025-01-02T00:00:00.000Z')}},{'meta.tag':{'$not':{'$elemMatch':{'system':'https://fhir.icanbwell.com/4_0_0/CodeSystem/server-behavior','code':'hidden'}}}}]}, {}) | db.ImmunizationEvaluation_4_0_0.find({'$and':[{'patient._uuid':'Patient/24a5930e-11b4-5525-b482-669174917044'},{'meta.lastUpdated':{'$gt':ISODate('2024-12-31T00:00:00.000Z'),'$lt':ISODate('2025-01-02T00:00:00.000Z')}},{'meta.tag':{'$not':{'$elemMatch':{'system':'https://fhir.icanbwell.com/4_0_0/CodeSystem/server-behavior','code':'hidden'}}}}]}, {}) | db.ImmunizationRecommendation_4_0_0.find({'$and':[{'patient._uuid':'Patient/24a5930e-11b4-5525-b482-669174917044'},{'meta.lastUpdated':{'$gt':ISODate('2024-12-31T00:00:00.000Z'),'$lt':ISODate('2025-01-02T00:00:00.000Z')}},{'meta.tag':{'$not':{'$elemMatch':{'system':'https://fhir.icanbwell.com/4_0_0/CodeSystem/server-behavior','code':'hidden'}}}}]}, {}) | db.Invoice_4_0_0.find({'$and':[{'subject._uuid':'Patient/24a5930e-11b4-5525-b482-669174917044'},{'meta.lastUpdated':{'$gt':ISODate('2024-12-31T00:00:00.000Z'),'$lt':ISODate('2025-01-02T00:00:00.000Z')}},{'meta.tag':{'$not':{'$elemMatch':{'system':'https://fhir.icanbwell.com/4_0_0/CodeSystem/server-behavior','code':'hidden'}}}}]}, {}) | db.Linkage_4_0_0.find({'$and':[{'item.resource._uuid':'Patient/24a5930e-11b4-5525-b482-669174917044'},{'meta.lastUpdated':{'$gt':ISODate('2024-12-31T00:00:00.000Z'),'$lt':ISODate('2025-01-02T00:00:00.000Z')}},{'meta.tag':{'$not':{'$elemMatch':{'system':'https://fhir.icanbwell.com/4_0_0/CodeSystem/server-behavior','code':'hidden'}}}}]}, {}) | db.List_4_0_0.find({'$and':[{'subject._uuid':'Patient/24a5930e-11b4-5525-b482-669174917044'},{'meta.lastUpdated':{'$gt':ISODate('2024-12-31T00:00:00.000Z'),'$lt':ISODate('2025-01-02T00:00:00.000Z')}},{'meta.tag':{'$not':{'$elemMatch':{'system':'https://fhir.icanbwell.com/4_0_0/CodeSystem/server-behavior','code':'hidden'}}}}]}, {}) | db.MeasureReport_4_0_0.find({'$and':[{'subject._uuid':'Patient/24a5930e-11b4-5525-b482-669174917044'},{'meta.lastUpdated':{'$gt':ISODate('2024-12-31T00:00:00.000Z'),'$lt':ISODate('2025-01-02T00:00:00.000Z')}},{'meta.tag':{'$not':{'$elemMatch':{'system':'https://fhir.icanbwell.com/4_0_0/CodeSystem/server-behavior','code':'hidden'}}}}]}, {}) | db.Media_4_0_0.find({'$and':[{'subject._uuid':'Patient/24a5930e-11b4-5525-b482-669174917044'},{'meta.lastUpdated':{'$gt':ISODate('2024-12-31T00:00:00.000Z'),'$lt':ISODate('2025-01-02T00:00:00.000Z')}},{'meta.tag':{'$not':{'$elemMatch':{'system':'https://fhir.icanbwell.com/4_0_0/CodeSystem/server-behavior','code':'hidden'}}}}]}, {}) | db.MedicationAdministration_4_0_0.find({'$and':[{'subject._uuid':'Patient/24a5930e-11b4-5525-b482-669174917044'},{'meta.lastUpdated':{'$gt':ISODate('2024-12-31T00:00:00.000Z'),'$lt':ISODate('2025-01-02T00:00:00.000Z')}},{'meta.tag':{'$not':{'$elemMatch':{'system':'https://fhir.icanbwell.com/4_0_0/CodeSystem/server-behavior','code':'hidden'}}}}]}, {}) | db.MedicationDispense_4_0_0.find({'$and':[{'subject._uuid':'Patient/24a5930e-11b4-5525-b482-669174917044'},{'meta.lastUpdated':{'$gt':ISODate('2024-12-31T00:00:00.000Z'),'$lt':ISODate('2025-01-02T00:00:00.000Z')}},{'meta.tag':{'$not':{'$elemMatch':{'system':'https://fhir.icanbwell.com/4_0_0/CodeSystem/server-behavior','code':'hidden'}}}}]}, {}) | db.MedicationRequest_4_0_0.find({'$and':[{'subject._uuid':'Patient/24a5930e-11b4-5525-b482-669174917044'},{'meta.lastUpdated':{'$gt':ISODate('2024-12-31T00:00:00.000Z'),'$lt':ISODate('2025-01-02T00:00:00.000Z')}},{'meta.tag':{'$not':{'$elemMatch':{'system':'https://fhir.icanbwell.com/4_0_0/CodeSystem/server-behavior','code':'hidden'}}}}]}, {}) | db.MedicationStatement_4_0_0.find({'$and':[{'subject._uuid':'Patient/24a5930e-11b4-5525-b482-669174917044'},{'meta.lastUpdated':{'$gt':ISODate('2024-12-31T00:00:00.000Z'),'$lt':ISODate('2025-01-02T00:00:00.000Z')}},{'meta.tag':{'$not':{'$elemMatch':{'system':'https://fhir.icanbwell.com/4_0_0/CodeSystem/server-behavior','code':'hidden'}}}}]}, {}) | db.MolecularSequence_4_0_0.find({'$and':[{'patient._uuid':'Patient/24a5930e-11b4-5525-b482-669174917044'},{'meta.lastUpdated':{'$gt':ISODate('2024-12-31T00:00:00.000Z'),'$lt':ISODate('2025-01-02T00:00:00.000Z')}},{'meta.tag':{'$not':{'$elemMatch':{'system':'https://fhir.icanbwell.com/4_0_0/CodeSystem/server-behavior','code':'hidden'}}}}]}, {}) | db.NutritionOrder_4_0_0.find({'$and':[{'patient._uuid':'Patient/24a5930e-11b4-5525-b482-669174917044'},{'meta.lastUpdated':{'$gt':ISODate('2024-12-31T00:00:00.000Z'),'$lt':ISODate('2025-01-02T00:00:00.000Z')}},{'meta.tag':{'$not':{'$elemMatch':{'system':'https://fhir.icanbwell.com/4_0_0/CodeSystem/server-behavior','code':'hidden'}}}}]}, {}) | db.Observation_4_0_0.find({'$and':[{'subject._uuid':'Patient/24a5930e-11b4-5525-b482-669174917044'},{'meta.lastUpdated':{'$gt':ISODate('2024-12-31T00:00:00.000Z'),'$lt':ISODate('2025-01-02T00:00:00.000Z')}},{'meta.tag':{'$not':{'$elemMatch':{'system':'https://fhir.icanbwell.com/4_0_0/CodeSystem/server-behavior','code':'hidden'}}}}]}, {}) | db.Patient_4_0_0.find({'$and':[{'link.other._uuid':'Patient/24a5930e-11b4-5525-b482-669174917044'},{'meta.lastUpdated':{'$gt':ISODate('2024-12-31T00:00:00.000Z'),'$lt':ISODate('2025-01-02T00:00:00.000Z')}},{'meta.tag':{'$not':{'$elemMatch':{'system':'https://fhir.icanbwell.com/4_0_0/CodeSystem/server-behavior','code':'hidden'}}}}]}, {}) | db.PaymentNotice_4_0_0.find({'$and':[{'request._uuid':'Patient/24a5930e-11b4-5525-b482-669174917044'},{'meta.lastUpdated':{'$gt':ISODate('2024-12-31T00:00:00.000Z'),'$lt':ISODate('2025-01-02T00:00:00.000Z')}},{'meta.tag':{'$not':{'$elemMatch':{'system':'https://fhir.icanbwell.com/4_0_0/CodeSystem/server-behavior','code':'hidden'}}}}]}, {}) | db.Person_4_0_0.find({'$and':[{'link.target._uuid':'Patient/24a5930e-11b4-5525-b482-669174917044'},{'meta.lastUpdated':{'$gt':ISODate('2024-12-31T00:00:00.000Z'),'$lt':ISODate('2025-01-02T00:00:00.000Z')}},{'meta.tag':{'$not':{'$elemMatch':{'system':'https://fhir.icanbwell.com/4_0_0/CodeSystem/server-behavior','code':'hidden'}}}}]}, {}) | db.Procedure_4_0_0.find({'$and':[{'subject._uuid':'Patient/24a5930e-11b4-5525-b482-669174917044'},{'meta.lastUpdated':{'$gt':ISODate('2024-12-31T00:00:00.000Z'),'$lt':ISODate('2025-01-02T00:00:00.000Z')}},{'meta.tag':{'$not':{'$elemMatch':{'system':'https://fhir.icanbwell.com/4_0_0/CodeSystem/server-behavior','code':'hidden'}}}}]}, {}) | db.Provenance_4_0_0.find({'$and':[{'target._uuid':'Patient/24a5930e-11b4-5525-b482-669174917044'},{'meta.lastUpdated':{'$gt':ISODate('2024-12-31T00:00:00.000Z'),'$lt':ISODate('2025-01-02T00:00:00.000Z')}},{'meta.tag':{'$not':{'$elemMatch':{'system':'https://fhir.icanbwell.com/4_0_0/CodeSystem/server-behavior','code':'hidden'}}}}]}, {}) | db.QuestionnaireResponse_4_0_0.find({'$and':[{'subject._uuid':'Patient/24a5930e-11b4-5525-b482-669174917044'},{'meta.lastUpdated':{'$gt':ISODate('2024-12-31T00:00:00.000Z'),'$lt':ISODate('2025-01-02T00:00:00.000Z')}},{'meta.tag':{'$not':{'$elemMatch':{'system':'https://fhir.icanbwell.com/4_0_0/CodeSystem/server-behavior','code':'hidden'}}}}]}, {}) | db.RelatedPerson_4_0_0.find({'$and':[{'patient._uuid':'Patient/24a5930e-11b4-5525-b482-669174917044'},{'meta.lastUpdated':{'$gt':ISODate('2024-12-31T00:00:00.000Z'),'$lt':ISODate('2025-01-02T00:00:00.000Z')}},{'meta.tag':{'$not':{'$elemMatch':{'system':'https://fhir.icanbwell.com/4_0_0/CodeSystem/server-behavior','code':'hidden'}}}}]}, {}) | db.RequestGroup_4_0_0.find({'$and':[{'subject._uuid':'Patient/24a5930e-11b4-5525-b482-669174917044'},{'meta.lastUpdated':{'$gt':ISODate('2024-12-31T00:00:00.000Z'),'$lt':ISODate('2025-01-02T00:00:00.000Z')}},{'meta.tag':{'$not':{'$elemMatch':{'system':'https://fhir.icanbwell.com/4_0_0/CodeSystem/server-behavior','code':'hidden'}}}}]}, {}) | db.ResearchSubject_4_0_0.find({'$and':[{'individual._uuid':'Patient/24a5930e-11b4-5525-b482-669174917044'},{'meta.lastUpdated':{'$gt':ISODate('2024-12-31T00:00:00.000Z'),'$lt':ISODate('2025-01-02T00:00:00.000Z')}},{'meta.tag':{'$not':{'$elemMatch':{'system':'https://fhir.icanbwell.com/4_0_0/CodeSystem/server-behavior','code':'hidden'}}}}]}, {}) | db.RiskAssessment_4_0_0.find({'$and':[{'subject._uuid':'Patient/24a5930e-11b4-5525-b482-669174917044'},{'meta.lastUpdated':{'$gt':ISODate('2024-12-31T00:00:00.000Z'),'$lt':ISODate('2025-01-02T00:00:00.000Z')}},{'meta.tag':{'$not':{'$elemMatch':{'system':'https://fhir.icanbwell.com/4_0_0/CodeSystem/server-behavior','code':'hidden'}}}}]}, {}) | db.Schedule_4_0_0.find({'$and':[{'actor._uuid':'Patient/24a5930e-11b4-5525-b482-669174917044'},{'meta.lastUpdated':{'$gt':ISODate('2024-12-31T00:00:00.000Z'),'$lt':ISODate('2025-01-02T00:00:00.000Z')}},{'meta.tag':{'$not':{'$elemMatch':{'system':'https://fhir.icanbwell.com/4_0_0/CodeSystem/server-behavior','code':'hidden'}}}}]}, {}) | db.ServiceRequest_4_0_0.find({'$and':[{'subject._uuid':'Patient/24a5930e-11b4-5525-b482-669174917044'},{'meta.lastUpdated':{'$gt':ISODate('2024-12-31T00:00:00.000Z'),'$lt':ISODate('2025-01-02T00:00:00.000Z')}},{'meta.tag':{'$not':{'$elemMatch':{'system':'https://fhir.icanbwell.com/4_0_0/CodeSystem/server-behavior','code':'hidden'}}}}]}, {}) | db.Specimen_4_0_0.find({'$and':[{'subject._uuid':'Patient/24a5930e-11b4-5525-b482-669174917044'},{'meta.lastUpdated':{'$gt':ISODate('2024-12-31T00:00:00.000Z'),'$lt':ISODate('2025-01-02T00:00:00.000Z')}},{'meta.tag':{'$not':{'$elemMatch':{'system':'https://fhir.icanbwell.com/4_0_0/CodeSystem/server-behavior','code':'hidden'}}}}]}, {}) | db.Subscription_4_0_0.find({'$and':[{'extension':{'$elemMatch':{'url':'https://icanbwell.com/codes/source_patient_id','valueString':'24a5930e-11b4-5525-b482-669174917044'}}},{'meta.lastUpdated':{'$gt':ISODate('2024-12-31T00:00:00.000Z'),'$lt':ISODate('2025-01-02T00:00:00.000Z')}},{'meta.tag':{'$not':{'$elemMatch':{'system':'https://fhir.icanbwell.com/4_0_0/CodeSystem/server-behavior','code':'hidden'}}}}]}, {}) | db.SubscriptionStatus_4_0_0.find({'$and':[{'extension':{'$elemMatch':{'url':'https://icanbwell.com/codes/source_patient_id','valueString':'24a5930e-11b4-5525-b482-669174917044'}}},{'meta.lastUpdated':{'$gt':ISODate('2024-12-31T00:00:00.000Z'),'$lt':ISODate('2025-01-02T00:00:00.000Z')}},{'meta.tag':{'$not':{'$elemMatch':{'system':'https://fhir.icanbwell.com/4_0_0/CodeSystem/server-behavior','code':'hidden'}}}}]}, {}) | db.SubscriptionTopic_4_0_0.find({'$and':[{'identifier':{'$elemMatch':{'system':'https://icanbwell.com/codes/source_patient_id','value':'24a5930e-11b4-5525-b482-669174917044'}}},{'meta.lastUpdated':{'$gt':ISODate('2024-12-31T00:00:00.000Z'),'$lt':ISODate('2025-01-02T00:00:00.000Z')}},{'meta.tag':{'$not':{'$elemMatch':{'system':'https://fhir.icanbwell.com/4_0_0/CodeSystem/server-behavior','code':'hidden'}}}}]}, {}) | db.SupplyDelivery_4_0_0.find({'$and':[{'patient._uuid':'Patient/24a5930e-11b4-5525-b482-669174917044'},{'meta.lastUpdated':{'$gt':ISODate('2024-12-31T00:00:00.000Z'),'$lt':ISODate('2025-01-02T00:00:00.000Z')}},{'meta.tag':{'$not':{'$elemMatch':{'system':'https://fhir.icanbwell.com/4_0_0/CodeSystem/server-behavior','code':'hidden'}}}}]}, {}) | db.SupplyRequest_4_0_0.find({'$and':[{'requester._uuid':'Patient/24a5930e-11b4-5525-b482-669174917044'},{'meta.lastUpdated':{'$gt':ISODate('2024-12-31T00:00:00.000Z'),'$lt':ISODate('2025-01-02T00:00:00.000Z')}},{'meta.tag':{'$not':{'$elemMatch':{'system':'https://fhir.icanbwell.com/4_0_0/CodeSystem/server-behavior','code':'hidden'}}}}]}, {}) | db.Task_4_0_0.find({'$and':[{'for._uuid':'Patient/24a5930e-11b4-5525-b482-669174917044'},{'meta.lastUpdated':{'$gt':ISODate('2024-12-31T00:00:00.000Z'),'$lt':ISODate('2025-01-02T00:00:00.000Z')}},{'meta.tag':{'$not':{'$elemMatch':{'system':'https://fhir.icanbwell.com/4_0_0/CodeSystem/server-behavior','code':'hidden'}}}}]}, {}) | db.VisionPrescription_4_0_0.find({'$and':[{'patient._uuid':'Patient/24a5930e-11b4-5525-b482-669174917044'},{'meta.lastUpdated':{'$gt':ISODate('2024-12-31T00:00:00.000Z'),'$lt':ISODate('2025-01-02T00:00:00.000Z')}},{'meta.tag':{'$not':{'$elemMatch':{'system':'https://fhir.icanbwell.com/4_0_0/CodeSystem/server-behavior','code':'hidden'}}}}]}, {})"
      },
      {
        "system": "https://www.icanbwell.com/queryCollection",
        "code": "Patient_4_0_0|Account_4_0_0|AdverseEvent_4_0_0|AllergyIntolerance_4_0_0|Appointment_4_0_0|AppointmentResponse_4_0_0|Basic_4_0_0|BodyStructure_4_0_0|CarePlan_4_0_0|CareTeam_4_0_0|ChargeItem_4_0_0|Claim_4_0_0|ClaimResponse_4_0_0|ClinicalImpression_4_0_0|Communication_4_0_0|CommunicationRequest_4_0_0|Composition_4_0_0|Condition_4_0_0|Consent_4_0_0|Contract_4_0_0|Coverage_4_0_0|CoverageEligibilityRequest_4_0_0|CoverageEligibilityResponse_4_0_0|DetectedIssue_4_0_0|Device_4_0_0|DeviceRequest_4_0_0|DeviceUseStatement_4_0_0|DiagnosticReport_4_0_0|DocumentManifest_4_0_0|DocumentReference_4_0_0|Encounter_4_0_0|EnrollmentRequest_4_0_0|EpisodeOfCare_4_0_0|ExplanationOfBenefit_4_0_0|FamilyMemberHistory_4_0_0|Flag_4_0_0|Goal_4_0_0|Group_4_0_0|GuidanceResponse_4_0_0|ImagingStudy_4_0_0|Immunization_4_0_0|ImmunizationEvaluation_4_0_0|ImmunizationRecommendation_4_0_0|Invoice_4_0_0|Linkage_4_0_0|List_4_0_0|MeasureReport_4_0_0|Media_4_0_0|MedicationAdministration_4_0_0|MedicationDispense_4_0_0|MedicationRequest_4_0_0|MedicationStatement_4_0_0|MolecularSequence_4_0_0|NutritionOrder_4_0_0|Observation_4_0_0|Patient_4_0_0|PaymentNotice_4_0_0|Person_4_0_0|Procedure_4_0_0|Provenance_4_0_0|QuestionnaireResponse_4_0_0|RelatedPerson_4_0_0|RequestGroup_4_0_0|ResearchSubject_4_0_0|RiskAssessment_4_0_0|Schedule_4_0_0|ServiceRequest_4_0_0|Specimen_4_0_0|Subscription_4_0_0|SubscriptionStatus_4_0_0|SubscriptionTopic_4_0_0|SupplyDelivery_4_0_0|SupplyRequest_4_0_0|Task_4_0_0|VisionPrescription_4_0_0"
      },
      {
        "system": "https://www.icanbwell.com/queryOptions",
        "display": "[{'projection':{'_id':0}}]"
      },
      {
        "system": "https://www.icanbwell.com/queryFields",
        "display": "[]"
      },
      {
        "system": "https://www.icanbwell.com/queryTime"
      },
      {
        "system": "https://www.icanbwell.com/queryOptimization",
        "display": "{'useTwoStepSearchOptimization':undefined}"
      },
      {
        "system": "https://www.icanbwell.com/queryExplain"
      },
      {
        "system": "https://www.icanbwell.com/queryExplainSimple"
      }
    ]
  },
  "total": 3
}
